t_native_s,t_opt_s,ax,ay,az,gx,gy,gz,mx,my,mz
2441.613,0,-4.165911,-4.812345,8.30788,-0.01278317,0.03089267,-0.0958738,23,543,-525
2441.617,0.00390625,-4.10845,-4.67827,8.389283,-0.008522115,0.02769688,-0.1033307,-24,570,-508
2441.621,0.0078125,-4.122815,-4.668693,8.432378,-0.01917476,0.02024002,-0.1022654,-52,573,-537
2441.625,0.01171875,-4.046201,-4.639963,8.461109,-0.02769688,0.02130529,-0.1033307,-39,547,-536
2441.629,0.015625,-4.060566,-4.510676,8.494627,-0.04048005,0.01704423,-0.1065264,29,572,-522
2441.633,0.01953125,-3.955221,-4.453215,8.418013,-0.05219796,0.007456851,-0.1150486,-80,536,-498
2441.637,0.0234375,-3.888183,-4.414908,8.398859,-0.06072007,0.01171791,-0.1139833,-22,582,-519
2441.641,0.02734375,-3.801992,-4.424485,8.408436,-0.07350325,0.01597897,-0.1118528,-9,566,-552
2441.645,0.03125,-3.773262,-4.357447,8.432378,-0.08735168,0.0149137,-0.108657,21,557,-532
2441.648,0.03515625,-3.811569,-4.285621,8.451532,-0.1033307,0.0181095,-0.1065264,0,556,-516
2441.652,0.0390625,-3.859453,-4.304775,8.489839,-0.1171791,0.01917476,-0.1043959,-10,525,-529
2441.656,0.04296875,-3.754108,-4.338293,8.389283,-0.1299623,0.02130529,-0.1001349,18,577,-523
2441.66,0.046875,-3.720589,-4.486734,8.283938,-0.1342233,0.01065264,-0.08841695,-29,586,-565
2441.664,0.05078125,-3.667917,-4.572925,8.264784,-0.1363538,0.01278317,-0.07989483,33,528,-506
2441.668,0.0546875,-3.744531,-4.716577,8.269573,-0.1331581,0.02237055,-0.07030745,10,556,-499
2441.672,0.05859375,-3.854665,-4.845864,8.169016,-0.1246359,0.0149137,-0.05965481,-13,567,-500
2441.676,0.0625,-3.878607,-4.979939,8.197746,-0.1193096,0.0149137,-0.05219796,-42,585,-565
2441.68,0.06640625,-3.921702,-4.951209,8.2169,-0.112918,0.01704423,-0.05113269,16,607,-535
2441.684,0.0703125,-3.921702,-4.831499,8.255207,-0.1107875,0.01278317,-0.04367584,-25,555,-558
2441.688,0.07421875,-3.86903,-4.683058,8.360552,-0.1022654,0.005326322,-0.03408846,-12,575,-520
2441.691,0.078125,-3.964798,-4.55856,8.508993,-0.09693906,-0.00958738,-0.02769688,-7,560,-515
2441.695,0.08203125,-4.031836,-4.663905,8.298303,-0.08841695,-0.02556635,-0.02237055,4,540,-516
2441.699,0.0859375,-3.859453,-4.644751,8.197746,-0.08841695,-0.01704423,-0.02024002,-7,613,-509
2441.703,0.08984375,-3.816357,-4.778827,8.360552,-0.0809601,-0.02024002,-0.01278317,-4,576,-476
2441.707,0.09375,-3.859453,-4.812345,8.245631,-0.06817692,-0.02769688,-0.005326322,-22,553,-520
2441.711,0.09765625,-3.964798,-4.879383,8.418013,-0.07243798,-0.01597897,-0.002130529,44,565,-522
2441.715,0.1015625,-4.098873,-4.860229,8.504204,-0.06924219,-0.02237055,-0.004261058,-8,569,-513
2441.719,0.1054688,-4.10845,-4.826711,8.528146,-0.08309063,-0.03089267,-0.006391587,11,563,-540
2441.723,0.109375,-4.141969,-4.793192,8.394071,-0.09054748,-0.0330232,-0.005326322,20,561,-516
2441.727,0.1132812,-4.122815,-5.018247,8.331822,-0.09374327,-0.03515373,-0.005326322,-46,541,-466
2441.73,0.1171875,-4.170699,-5.33907,8.245631,-0.08948221,-0.03089267,-0.006391587,-48,564,-485
2441.734,0.1210938,-4.194641,-5.439626,8.250419,-0.08841695,-0.02876214,-0.01597897,-5,579,-540
2441.738,0.125,-4.352659,-5.372589,8.33661,-0.09054748,-0.02663161,-0.01704423,30,579,-563
2441.742,0.1289062,-4.376601,-5.21936,8.293515,-0.09480853,-0.03089267,-0.0149137,33,568,-479
2441.746,0.1328125,-4.31914,-5.109226,8.283938,-0.09693906,-0.0298274,-0.02024002,-58,559,-500
2441.75,0.1367188,-4.328717,-5.061342,8.384494,-0.09800433,-0.02450108,-0.03728426,-45,586,-530
2441.754,0.140625,-4.343082,-5.171476,8.408436,-0.1075917,-0.02556635,-0.04687164,-1,608,-530
2441.758,0.1445312,-4.434061,-5.262455,8.475474,-0.1054612,-0.03089267,-0.05645902,4,562,-524
2441.762,0.1484375,-4.218583,-5.257667,8.298303,-0.1161138,-0.03834952,-0.06391587,-4,554,-487
2441.766,0.1523438,-3.955221,-5.238513,8.197746,-0.1107875,-0.03728426,-0.05858954,-31,576,-497
2441.77,0.15625,-3.878607,-5.439626,8.169016,-0.0958738,-0.03834952,-0.05326322,-1,573,-516
2441.773,0.1601562,-4.027047,-5.540183,8.197746,-0.07882957,-0.03728426,-0.05113269,17,589,-554
2441.777,0.1640625,-4.165911,-5.420473,8.30788,-0.07137272,-0.03089267,-0.04474111,28,552,-545
2441.781,0.1679688,-4.252102,-5.257667,8.350975,-0.07030745,-0.03408846,-0.04900216,9,525,-500
2441.785,0.171875,-4.266467,-5.238513,8.303091,-0.06817692,-0.04048005,-0.05965481,-18,589,-506
2441.789,0.1757812,-4.118027,-5.286397,8.33661,-0.0660464,-0.0479369,-0.06391587,-8,599,-514
2441.793,0.1796875,-4.031836,-5.305551,8.331822,-0.06391587,-0.05006743,-0.06391587,-17,579,-559
2441.797,0.1835938,-3.931279,-5.420473,8.288726,-0.06391587,-0.04474111,-0.06391587,12,546,-520
2441.801,0.1875,-3.964798,-5.597643,8.221689,-0.05645902,-0.04474111,-0.0628506,-56,552,-497
2441.805,0.1914062,-4.003105,-5.674258,8.221689,-0.04900216,-0.04154531,-0.05965481,8,608,-501
2441.809,0.1953125,-4.141969,-5.631162,8.269573,-0.0479369,-0.0330232,-0.05752428,-32,585,-521
2441.812,0.1992188,-4.232949,-5.506664,8.274361,-0.04900216,-0.02769688,-0.06072007,17,557,-542
2441.816,0.203125,-4.189853,-5.48751,8.350975,-0.05645902,-0.03195793,-0.06498113,23,545,-470
2441.82,0.2070312,-4.156334,-5.473145,8.283938,-0.05965481,-0.0298274,-0.07030745,14,555,-530
2441.824,0.2109375,-4.01747,-5.401319,8.269573,-0.06391587,-0.02450108,-0.07243798,-1,575,-516
2441.828,0.2148438,-3.969586,-5.468357,8.269573,-0.0628506,-0.02024002,-0.07243798,-61,581,-550
2441.832,0.21875,-3.912126,-5.401319,8.269573,-0.06072007,-0.02130529,-0.06817692,13,553,-543
2441.836,0.2226562,-3.974375,-5.401319,8.221689,-0.05752428,-0.02024002,-0.0628506,-3,531,-511
2441.84,0.2265625,-4.065354,-5.300762,8.288726,-0.05539375,-0.00958738,-0.06072007,11,548,-505
2441.844,0.2304688,-4.122815,-5.24809,8.33661,-0.05752428,-0.01384844,-0.06072007,-15,559,-529
2441.848,0.234375,-4.103662,-5.24809,8.355764,-0.05965481,-0.0149137,-0.05965481,23,589,-533
2441.852,0.2382812,-4.046201,-5.257667,8.327033,-0.06711166,-0.0149137,-0.0660464,-5,533,-505
2441.855,0.2421875,-4.012682,-5.300762,8.322245,-0.07243798,-0.01278317,-0.0660464,-5,566,-542
2441.859,0.2460938,-3.955221,-5.358223,8.269573,-0.07350325,-0.0181095,-0.0628506,-30,568,-524
2441.863,0.25,-3.892972,-5.406107,8.183381,-0.0660464,-0.01917476,-0.05858954,-4,565,-529
2441.867,0.2539062,-3.86903,-5.391742,8.173804,-0.05965481,-0.01704423,-0.05432849,27,601,-510
2441.871,0.2578125,-3.950433,-5.401319,8.18817,-0.05645902,-0.0149137,-0.04687164,-6,529,-516
2441.875,0.2617188,-3.969586,-5.3678,8.159439,-0.04900216,-0.02024002,-0.05113269,-28,559,-536
2441.879,0.265625,-3.993528,-5.348647,8.169016,-0.04367584,-0.01704423,-0.05006743,-32,563,-506
2441.883,0.2695312,-3.859453,-5.343858,8.178593,-0.03834952,-0.01384844,-0.04580637,-43,624,-522
2441.887,0.2734375,-3.916914,-5.27682,8.183381,-0.03408846,-0.01171791,-0.04261058,10,569,-503
2441.891,0.2773438,-3.888183,-5.185841,8.236054,-0.02769688,-0.007456851,-0.03515373,71,543,-548
2441.895,0.28125,-3.902549,-5.104438,8.264784,-0.02769688,0,-0.0330232,-40,599,-525
2441.898,0.2851562,-3.983952,-5.094861,8.331822,-0.0330232,0.002130529,-0.03515373,-2,597,-508
2441.902,0.2890625,-3.936068,-5.027823,8.341399,-0.03408846,-0.005326322,-0.03621899,-54,592,-557
2441.906,0.2929688,-3.96001,-5.080496,8.298303,-0.03621899,0,-0.0330232,-7,547,-512
2441.91,0.296875,-3.940856,-5.152322,8.298303,-0.03408846,0.004261058,-0.03515373,22,550,-506
2441.914,0.3007812,-3.940856,-5.118803,8.269573,-0.03834952,0.008522115,-0.03621899,-7,558,-515
2441.918,0.3046875,-3.993528,-5.051766,8.279149,-0.03728426,0.008522115,-0.03408846,-3,592,-528
2441.922,0.3085938,-3.964798,-5.023035,8.240842,-0.03941478,0.007456851,-0.03728426,-1,593,-559
2441.926,0.3125,-3.945644,-5.133168,8.293515,-0.04154531,0.006391587,-0.03515373,25,559,-548
2441.93,0.3164062,-3.873818,-5.15711,8.255207,-0.03941478,0.008522115,-0.0330232,-4,553,-512
2441.934,0.3203125,-3.931279,-5.181052,8.212112,-0.03834952,0.007456851,-0.03089267,14,556,-488
2441.938,0.3242188,-3.936068,-5.185841,8.202535,-0.03408846,0.007456851,-0.02769688,21,618,-501
2441.941,0.328125,-3.921702,-5.257667,8.202535,-0.03089267,0.005326322,-0.02130529,34,550,-547
2441.945,0.3320312,-3.907337,-5.291186,8.226477,-0.02450108,0.003195793,-0.0181095,5,552,-537
2441.949,0.3359375,-3.902549,-5.291186,8.154651,-0.01917476,0.002130529,-0.0149137,32,599,-518
2441.953,0.3398438,-3.907337,-5.267244,8.12592,-0.008522115,0.004261058,-0.008522115,39,566,-502
2441.957,0.34375,-3.974375,-5.281609,8.12592,-0.001065264,-0.001065264,-0.004261058,-11,574,-510
2441.961,0.3476562,-3.969586,-5.324704,8.12592,0.007456851,-0.006391587,0,8,569,-516
2441.965,0.3515625,-3.926491,-5.343858,8.082825,0.0149137,-0.01384844,0.006391587,-29,532,-513
2441.969,0.3554688,-3.883395,-5.382165,8.106767,0.02663161,-0.01171791,0.01384844,3,573,-518
2441.973,0.359375,-3.864241,-5.286397,8.140286,0.0330232,-0.0149137,0.01917476,50,577,-496
2441.977,0.3632812,-3.892972,-5.33907,8.09719,0.04261058,-0.01917476,0.02556635,8,551,-526
2441.98,0.3671875,-3.945644,-5.315128,8.164228,0.05113269,-0.02237055,0.0298274,35,598,-507
2441.984,0.3710938,-3.969586,-5.343858,8.202535,0.05858954,-0.02450108,0.03089267,11,552,-514
2441.988,0.375,-3.974375,-5.348647,8.063671,0.0660464,-0.03089267,0.03408846,-41,558,-480
2441.992,0.3789062,-3.96001,-5.406107,8.111555,0.07137272,-0.03089267,0.03728426,-19,555,-544
2441.996,0.3828125,-3.888183,-5.420473,8.116344,0.07882957,-0.02769688,0.04261058,22,559,-516
2442,0.3867188,-3.936068,-5.410896,8.169016,0.08628642,-0.02556635,0.04367584,-11,524,-515
2442.004,0.390625,-3.979163,-5.319916,8.164228,0.09693906,-0.03515373,0.05006743,6,548,-519
2442.008,0.3945312,-3.955221,-5.286397,8.121132,0.1001349,-0.03834952,0.05432849,-13,587,-477
2442.012,0.3984375,-3.86903,-5.353435,8.135497,0.1065264,-0.03834952,0.05432849,-29,579,-502
2442.016,0.4023438,-3.849876,-5.358223,8.049306,0.112918,-0.03834952,0.05645902,44,578,-504
2442.02,0.40625,-3.859453,-5.391742,8.09719,0.1310275,-0.04900216,0.06391587,-5,526,-532
2442.023,0.4101562,-3.730166,-5.444415,8.154651,0.1438107,-0.05326322,0.0777643,28,533,-495
2442.027,0.4140625,-3.725378,-5.525817,8.106767,0.1502023,-0.05752428,0.08628642,-30,591,-511
2442.031,0.4179688,-3.811569,-5.267244,8.183381,0.1629855,-0.05858954,0.09800433,-2,564,-516
2442.035,0.421875,-3.945644,-5.272032,8.221689,0.1715076,-0.05965481,0.1033307,25,577,-546
2442.039,0.4257812,-3.96001,-5.224148,8.288726,0.1757686,-0.06072007,0.1054612,10,559,-502
2442.043,0.4296875,-4.094085,-5.257667,8.231265,0.1747034,-0.06178534,0.1022654,-48,558,-543
2442.047,0.4335938,-4.027047,-5.21936,8.288726,0.1757686,-0.06711166,0.09906959,-14,587,-484
2442.051,0.4375,-3.974375,-5.214571,8.279149,0.1736381,-0.07137272,0.09906959,-24,574,-505
2442.055,0.4414062,-3.969586,-5.262455,8.236054,0.1789644,-0.07243798,0.1001349,5,565,-522
2442.059,0.4453125,-3.936068,-5.377377,8.183381,0.1874865,-0.07137272,0.1033307,-20,521,-493
2442.062,0.4492188,-3.936068,-5.305551,8.178593,0.1928129,-0.07243798,0.1043959,-39,558,-495
2442.066,0.453125,-3.998317,-5.228936,8.192958,0.1981392,-0.06711166,0.1043959,-33,564,-542
2442.07,0.4570312,-4.07972,-5.152322,8.283938,0.1992044,-0.06498113,0.1054612,32,590,-538
2442.074,0.4609375,-4.089296,-5.152322,8.30788,0.1981392,-0.07030745,0.1022654,17,526,-550
2442.078,0.4648438,-4.055778,-5.137957,8.341399,0.2045308,-0.07350325,0.09800433,12,532,-493
2442.082,0.46875,-3.950433,-5.209783,8.322245,0.2045308,-0.08522115,0.0958738,14,553,-536
2442.086,0.4726562,-3.940856,-5.166687,8.255207,0.2045308,-0.09480853,0.09906959,-17,591,-550
2442.09,0.4765625,-3.950433,-5.200206,8.255207,0.2066613,-0.09906959,0.1022654,-25,606,-535
2442.094,0.4804688,-3.998317,-5.228936,8.264784,0.2119876,-0.1043959,0.1054612,11,556,-532
2442.098,0.484375,-4.060566,-5.272032,8.212112,0.2119876,-0.1054612,0.1033307,5,541,-486
2442.102,0.4882812,-4.141969,-5.104438,8.274361,0.2130529,-0.1075917,0.1001349,-14,595,-523
2442.105,0.4921875,-4.223372,-5.003881,8.360552,0.2087918,-0.1182444,0.0958738,-35,616,-555
2442.109,0.4960938,-4.103662,-5.075708,8.437167,0.2034655,-0.1320928,0.08841695,4,553,-525
2442.113,0.5,-3.907337,-5.190629,8.279149,0.2066613,-0.1374191,0.08415589,22,555,-525
2442.117,0.5039062,-3.773262,-5.329493,8.283938,0.2119876,-0.1416802,0.09161274,-27,536,-495
2442.121,0.5078125,-3.734955,-5.631162,8.207323,0.2300971,-0.1565939,0.1107875,-29,605,-498
2442.125,0.5117188,-3.873818,-5.60722,8.183381,0.2428803,-0.1523328,0.1225054,-36,601,-553
2442.129,0.515625,-4.01747,-5.410896,8.250419,0.2556635,-0.1512675,0.1342233,-1,551,-538
2442.133,0.5195312,-4.237737,-5.262455,8.365341,0.2663161,-0.1715076,0.1352886,21,552,-514
2442.137,0.5234375,-4.170699,-5.291186,8.322245,0.2695119,-0.185356,0.128897,-19,566,-529
2442.141,0.5273438,-4.084508,-5.358223,8.250419,0.2769688,-0.1970739,0.1267665,48,577,-497
2442.145,0.53125,-3.902549,-5.477933,8.274361,0.2876214,-0.2119876,0.1320928,-3,577,-529
2442.148,0.5351562,-3.892972,-5.410896,8.312668,0.2961435,-0.2151834,0.1374191,-60,517,-560
2442.152,0.5390625,-3.916914,-5.075708,8.413225,0.2950782,-0.2066613,0.1395496,-7,613,-484
2442.156,0.5429688,-3.950433,-4.79798,8.5473,0.2897519,-0.2034655,0.1384844,-32,573,-515
2442.16,0.546875,-3.86903,-4.850653,8.542512,0.2769688,-0.2034655,0.1278317,-19,576,-546
2442.164,0.5507812,-3.883395,-4.721366,8.508993,0.2695119,-0.1928129,0.1225054,54,596,-537
2442.168,0.5546875,-3.859453,-4.692635,8.609549,0.2588593,-0.1800297,0.1225054,13,537,-532
2442.172,0.5585938,-3.864241,-4.673482,8.657433,0.2396845,-0.1587244,0.1193096,8,570,-469
2442.176,0.5625,-3.768473,-4.577714,8.690952,0.2226403,-0.1459412,0.1097222,2,545,-483
2442.18,0.5664062,-3.744531,-4.510676,8.609549,0.2087918,-0.1374191,0.1065264,-18,587,-535
2442.184,0.5703125,-3.873818,-4.91769,8.566454,0.1970739,-0.1065264,0.1107875,31,558,-523
2442.188,0.5742188,-3.907337,-5.0374,8.595184,0.1938781,-0.09906959,0.1097222,-40,557,-511
2442.191,0.578125,-3.983952,-4.750096,8.585607,0.185356,-0.08415589,0.1150486,9,577,-523
2442.195,0.5820312,-3.931279,-4.481946,8.662222,0.1683118,-0.07030745,0.1214401,-68,567,-504
2442.199,0.5859375,-3.758897,-4.616021,8.676587,0.1502023,-0.06072007,0.1150486,-70,584,-559
2442.203,0.5898438,-3.806781,-4.711789,8.676587,0.1352886,-0.04048005,0.1171791,-16,575,-555
2442.207,0.59375,-3.849876,-4.64954,8.719682,0.1235707,-0.02130529,0.1278317,-18,570,-485
2442.211,0.5976562,-3.955221,-4.563348,8.887277,0.1001349,0,0.1363538,-15,549,-490
2442.215,0.6015625,-4.041412,-4.333505,8.705317,0.08522115,0.01917476,0.1416802,-42,543,-478
2442.219,0.6054688,-3.945644,-4.702212,8.887277,0.06711166,0.02663161,0.1352886,-48,591,-551
2442.223,0.609375,-3.677494,-4.553772,8.772355,0.04261058,0.04687164,0.1363538,-15,537,-512
2442.227,0.6132812,-3.533842,-4.127604,8.954314,0.02556635,0.08628642,0.1512675,28,545,-496
2442.23,0.6171875,-3.53863,-3.643975,8.987833,0.001065264,0.1257012,0.1533981,-18,567,-508
2442.234,0.6210938,-3.801992,-5.027823,9.078813,-0.001065264,0.1640507,0.09374327,-4,593,-557
2442.238,0.625,-3.643975,-4.941632,8.480262,-0.03408846,0.2066613,0.1182444,15,570,-510
2442.242,0.6289062,-3.361459,-4.223372,9.485827,-0.02556635,0.2833603,0.1725728,-3,528,-529
2442.246,0.6328125,-4.094085,-3.308787,6.852205,-0.05432849,0.3685815,0.1832255,17,583,-531
2442.25,0.6367188,-4.031836,-4.218583,8.619126,0.1150486,0.4090615,0.1832255,-26,529,-496
2442.254,0.640625,-3.337517,-2.796428,10.77391,-0.2812298,0.5677859,0.05858954,-15,603,-560
2442.258,0.6445312,-1.221043,-4.381389,9.773131,-0.0628506,0.4197142,-0.02343582,-14,563,-519
2442.262,0.6484375,-1.795651,-7.010222,8.868123,-0.1928129,0.6562029,0.1789644,3,549,-549
2442.266,0.6523438,-3.351882,-7.158663,9.77792,-0.03515373,0.737163,0.1917476,9,547,-506
2442.27,0.65625,-3.65834,-4.697424,9.548076,-0.09693906,0.8223841,0.1587244,-11,560,-492
2442.273,0.6601562,-3.131616,-3.44765,9.782708,-0.169377,0.8980179,0.2098571,-25,567,-526
2442.277,0.6640625,-3.236961,-3.270479,8.983045,-0.2801645,0.9811085,0.2492719,-40,546,-522
2442.281,0.6679688,-3.557784,-6.852205,9.576807,-0.3419499,1.029045,0.2812298,21,535,-494
2442.285,0.671875,-2.954445,-7.905654,9.016563,-0.241815,1.111071,0.2876214,-43,544,-517
2442.289,0.6757812,-3.08852,-6.435614,9.313444,-0.2876214,1.295362,0.4303668,-12,592,-518
2442.293,0.6796875,-3.380613,-6.181829,9.193734,-0.2492719,1.374191,0.5060006,-45,611,-525
2442.297,0.6835938,-3.323152,-6.842628,9.346963,-0.2077266,1.466869,0.5060006,-15,556,-511
2442.301,0.6875,-3.289633,-6.076484,9.232042,-0.205596,1.606419,0.5592638,-18,580,-499
2442.305,0.6914062,-3.706224,-6.17704,9.251195,-0.1619202,1.715076,0.6498113,-13,530,-467
2442.309,0.6953125,-3.955221,-6.722918,9.610325,-0.1406149,1.812015,0.6881608,-23,579,-506
2442.312,0.6992188,-3.663129,-7.326257,9.792285,-0.06924219,1.924933,0.7243798,-11,570,-526
2442.316,0.703125,-3.246537,-7.364564,9.768343,0.00958738,2.037851,0.813862,-34,538,-524
2442.32,0.7070312,-3.165135,-7.297527,9.639056,0.08628642,2.159291,0.8958874,-20,551,-516
2442.324,0.7109375,-3.423708,-6.449979,9.639056,0.1107875,2.344647,0.9480853,-2,555,-513
2442.328,0.7148438,-3.902549,-6.138733,9.730036,0.1565939,2.466087,0.999218,-35,583,-531
2442.332,0.71875,-4.510676,-6.047753,9.615114,0.2300971,2.579005,1.102549,-17,560,-512
2442.336,0.7226562,-4.175488,-6.172252,9.102755,0.2492719,2.672748,1.182444,-37,533,-560
2442.34,0.7265625,-4.22816,-6.368576,9.552865,0.1715076,2.804841,1.247425,3,514,-507
2442.344,0.7304688,-4.027047,-6.761225,8.633491,0.2503371,2.917759,1.34756,-26,572,-498
2442.348,0.734375,-4.970363,-4.951209,8.853758,0.1459412,3.095658,1.472195,-28,541,-545
2442.352,0.7382812,-3.639187,-8.99741,9.730036,0.3728426,3.252252,1.559547,35,531,-511
2442.355,0.7421875,-2.379836,-6.818686,9.399636,0.1885518,3.409911,1.503088,-2,548,-538
2442.359,0.7460938,-2.351106,-5.93762,8.743624,0.1949434,3.592072,1.788579,-38,530,-501
2442.363,0.75,-4.084508,-8.75799,9.509769,0.4058658,3.962784,2.065548,-30,563,-508
2442.367,0.7539062,-5.209783,-8.949526,9.92636,0.3771036,4.134291,2.068744,-6,557,-540
2442.371,0.7578125,-5.133168,-8.106767,10.3621,0.3728426,4.272776,2.172074,-58,555,-499
2442.375,0.7617188,-3.773262,-9.030929,10.05086,0.4303668,4.468784,2.431999,-2,575,-475
2442.379,0.765625,-3.280056,-9.725247,10.12747,0.5219796,4.706338,2.563026,-16,558,-508
2442.383,0.7695312,-3.1795,-9.720459,10.12268,0.6551376,4.963067,2.726012,-34,581,-489
2442.387,0.7734375,-2.418144,-8.020576,9.672575,0.7265103,5.234709,2.967827,-43,548,-479
2442.391,0.7773438,-2.135628,-4.635174,9.351752,0.5581986,5.65975,3.26184,-22,537,-507
2442.395,0.78125,-3.471592,-4.568137,10.04607,0.5464807,6.026201,3.428021,-11,486,-481
2442.398,0.7851562,-3.404555,-8.360552,5.315128,0.515588,6.292517,3.570766,-81,553,-487
2442.402,0.7890625,-2.652775,-7.762002,13.57512,0.2897519,6.584399,3.731621,-37,545,-501
2442.406,0.7929688,-2.379836,-6.248866,11.54484,0.5368933,6.997722,3.935087,-20,505,-470
2442.41,0.796875,-1.374272,-4.639963,13.66131,0.4207795,7.457916,4.180098,-45,500,-472
2442.414,0.8007812,-2.322376,-6.076484,9.720459,0.3163835,8.000136,4.224839,-42,519,-470
2442.418,0.8046875,-3.940856,-8.33661,14.43704,0.1970739,8.413459,4.344148,-85,554,-459
2442.422,0.8085938,-8.33661,-11.53526,16.29972,0.4335626,8.519985,4.511395,-55,548,-456
2442.426,0.8125,-15.42345,-12.94784,12.55041,0.6551376,8.414524,4.704208,-48,581,-456
2442.43,0.8164062,-20.36029,-8.676587,9.682152,0.5113269,8.309063,4.925783,-67,528,-423
2442.434,0.8203125,-26.10159,-4.371812,11.78426,0.3717773,8.083227,4.897021,-69,560,-428
2442.438,0.8242188,-32.36003,-0.8619126,14.45619,0.1533981,7.648599,4.89489,-73,577,-432
2442.441,0.828125,-37.09097,-3.892972,14.619,-0.2407498,6.782539,4.980111,-23,571,-487
2442.445,0.8320312,-34.70156,-10.08438,13.53203,-0.3621899,5.978264,5.067463,-46,598,-470
2442.449,0.8359375,-28.51973,-15.76342,13.18247,-0.3355583,5.403021,5.166533,-97,580,-432
2442.453,0.8398438,-21.95483,-19.80484,12.86644,-0.3536678,4.947088,4.983307,-71,570,-448
2442.457,0.84375,-20.37944,-19.00517,12.19127,-0.2002697,4.682902,4.867193,-98,562,-423
2442.461,0.8476562,-19.27332,-18.58379,11.69328,0.03834952,4.452805,4.927913,-95,616,-429
2442.465,0.8515625,-16.49605,-17.73146,9.543288,0.278034,4.217382,5.023787,-85,580,-457
2442.469,0.8554688,-14.2886,-16.49126,8.183381,0.314253,4.226969,4.911934,-107,556,-393
2442.473,0.859375,-14.42267,-13.90073,9.572018,0.02663161,4.285559,4.686098,-111,532,-434
2442.477,0.8632812,-14.56632,-12.77067,9.854534,-0.1512675,4.24934,4.392085,-116,569,-407
2442.48,0.8671875,-11.01812,-8.5473,8.441955,-0.5006743,4.344148,3.98835,-113,630,-415
2442.484,0.8710938,-9.437943,-8.686164,8.398859,-0.9470201,4.428304,3.631486,-90,558,-446
2442.488,0.875,-7.570466,-8.978256,7.910442,-1.253816,4.558267,3.300189,-98,596,-412
2442.492,0.8789062,-7.268796,-10.45308,8.858546,-1.784318,4.835235,3.033873,-91,571,-427
2442.496,0.8828125,-8.858546,-10.83616,11.19529,-2.099636,4.911934,2.908172,-125,607,-430
2442.5,0.8867188,-11.01812,-9.959879,14.02044,-2.481001,4.79582,2.789928,-131,598,-455
2442.504,0.890625,-12.99094,-8.231265,17.18558,-2.979545,4.35054,2.646117,-34,572,-424
2442.508,0.8945312,-13.77624,-10.03649,17.60696,-3.195793,3.874367,2.579005,-77,597,-406
2442.512,0.8984375,-12.78504,-15.3181,16.29494,-3.186206,3.347061,2.426672,-118,605,-419
2442.516,0.9023438,-8.451532,-22.02187,14.96855,-2.846387,2.710033,2.084723,-122,588,-443
2442.52,0.90625,-5.48751,-30.5979,13.57034,-2.313754,2.323342,1.386974,-99,607,-404
2442.523,0.9101562,-2.810793,-35.22828,11.39161,-1.441303,2.028263,0.7893609,-90,620,-451
2442.527,0.9140625,0.8762778,-36.9138,8.269573,-0.5017395,1.97287,0.1203749,-89,602,-414
2442.531,0.9179688,4.410119,-33.16927,4.232949,0.6540724,2.146508,-0.8170578,-100,596,-414
2442.535,0.921875,2.628833,-27.31784,2.829946,1.424259,2.369148,-1.332646,-171,645,-459
2442.539,0.9257812,-0.9481039,-22.18467,3.816357,2.011219,2.483131,-1.717206,-93,639,-450
2442.543,0.9296875,-5.142745,-15.85919,6.852205,2.552374,2.260491,-2.359561,-120,566,-357
2442.547,0.9335938,-7.283161,-10.37168,9.548076,2.374474,1.857821,-2.606702,-106,619,-371
2442.551,0.9375,-8.441955,-8.504204,9.423578,2.417085,1.331581,-2.613094,-117,617,-389
2442.555,0.9414062,-5.736507,-9.232042,9.016563,2.667422,0.773382,-2.703641,-134,588,-400
2442.559,0.9453125,-2.858677,-11.08515,8.676587,2.726012,0.4367584,-2.944391,-77,639,-409
2442.562,0.9492188,-0.9241618,-11.67413,8.408436,2.675944,0.2290319,-3.236273,-91,582,-350
2442.566,0.953125,-0.7996634,-11.12346,8.614338,2.452239,0.1363538,-3.550526,-103,613,-407
2442.57,0.9570312,-2.293645,-9.121908,9.198523,2.174205,-0.04261058,-3.994742,-108,602,-425
2442.574,0.9609375,-4.146757,-7.211335,9.816227,2.057026,-0.2727077,-4.206729,-73,619,-433
2442.578,0.9648438,-5.535394,-6.157887,10.50576,1.967543,-0.588026,-4.26958,-67,560,-406
2442.582,0.96875,-6.41646,-6.727707,10.97502,1.846103,-1.122789,-4.305799,-41,598,-417
2442.586,0.9726562,-6.555324,-8.178593,10.78827,1.803493,-1.502023,-4.372911,-78,565,-386
2442.59,0.9765625,-6.560113,-9.528923,10.47224,1.849299,-1.841842,-4.448544,-19,580,-410
2442.594,0.9804688,-7.010222,-10.79785,10.1562,1.992044,-2.321211,-4.539092,-79,619,-410
2442.598,0.984375,-7.819463,-11.13304,9.864111,2.102832,-2.716424,-4.614726,-26,570,-435
2442.602,0.9882812,-9.337386,-11.1905,9.409213,2.182727,-3.105246,-4.713795,-18,551,-339
2442.605,0.9921875,-10.89362,-9.959879,9.351752,2.179531,-3.600594,-4.881042,-93,593,-426
2442.609,0.9960938,-9.782708,-7.469909,8.968679,2.093245,-4.024569,-4.957741,-63,580,-428
2442.613,1,-7.613561,-5.118803,8.609549,1.990979,-4.453871,-4.908739,-11,561,-436
2442.617,1.003906,-5.372589,-3.677494,8.06846,1.939847,-4.788364,-4.77345,-26,507,-395
2442.621,1.007812,-4.146757,-3.332729,7.862558,1.953695,-5.093029,-4.577441,-28,519,-353
2442.625,1.011719,-5.377377,-3.586514,7.340622,1.946238,-5.290103,-4.459197,-35,568,-433
2442.629,1.015625,-7.096414,-3.624821,6.593631,1.821602,-5.544701,-4.395281,-77,562,-424
2442.633,1.019531,-6.775591,-2.595315,5.463568,1.456216,-5.970807,-4.385694,-35,533,-416
2442.637,1.023438,-4.486734,-0.7230489,4.711789,1.120658,-6.203035,-4.357997,7,528,-410
2442.641,1.027344,-2.375048,1.16837,3.974375,0.9001484,-6.263755,-4.236557,-18,508,-418
2442.645,1.03125,-1.479617,2.298434,3.667917,0.7233146,-6.131662,-3.931891,-29,502,-421
2442.648,1.035156,-1.747767,1.383849,3.720589,0.628506,-6.031527,-3.658118,-25,555,-411
2442.652,1.039062,-2.375048,-0.7996634,3.715801,0.5656554,-5.950567,-3.418434,18,527,-429
2442.656,1.042969,-3.557784,-3.29921,3.730166,0.5581986,-5.856824,-3.2416,33,494,-410
2442.66,1.046875,-4.568137,-5.779603,3.96001,0.6157228,-5.753493,-3.083941,-7,551,-404
2442.664,1.050781,-5.492299,-6.828263,4.118027,0.7254451,-5.714078,-2.959305,-30,539,-442
2442.668,1.054688,-6.062119,-7.359776,4.855441,0.8841695,-5.706622,-2.808037,27,507,-462
2442.672,1.058594,-6.287174,-8.57603,5.185841,1.148355,-5.746036,-2.609898,17,529,-418
2442.676,1.0625,-6.119579,-9.423578,5.09965,1.399757,-5.77906,-2.505502,19,535,-419
2442.68,1.066406,-5.588067,-9.610325,4.869806,1.619202,-5.771603,-2.440521,-5,561,-395
2442.684,1.070312,-4.999093,-8.753201,5.013458,1.808819,-5.688512,-2.365952,9,532,-435
2442.688,1.074219,-5.00867,-7.570466,5.267244,1.8738,-5.612878,-2.300971,20,531,-433
2442.691,1.078125,-5.449203,-6.359,5.688623,1.881257,-5.553224,-2.245577,13,504,-409
2442.695,1.082031,-6.263232,-4.927267,6.435614,1.760882,-5.47972,-2.212554,-3,566,-450
2442.699,1.085938,-6.775591,-4.180276,6.98628,1.579787,-5.45948,-2.221076,19,559,-406
2442.703,1.089844,-7.230489,-3.763685,7.331045,1.341168,-5.473329,-2.277535,49,551,-482
2442.707,1.09375,-7.608773,-3.758897,7.431602,1.055677,-5.494634,-2.379801,60,570,-457
2442.711,1.097656,-7.383718,-4.07972,7.465121,0.6700513,-5.529788,-2.561961,9,528,-483
2442.715,1.101562,-6.995857,-4.735731,7.469909,0.4111921,-5.517005,-2.666357,24,576,-453
2442.719,1.105469,-6.708553,-5.851429,7.364564,0.205596,-5.475459,-2.729207,23,550,-457
2442.723,1.109375,-6.86657,-7.52737,7.426814,0.03941478,-5.366802,-2.785667,59,550,-477
2442.727,1.113281,-7.326257,-8.441955,7.666234,-0.01917476,-5.273059,-2.804841,67,510,-480
2442.73,1.117188,-7.594408,-9.2081,7.73806,-0.04474111,-5.15801,-2.797384,85,530,-460
2442.734,1.121094,-7.862558,-9.868899,8.441955,-0.01704423,-5.002482,-2.793123,44,581,-433
2442.738,1.125,-8.2169,-10.02213,8.724471,-0.001065264,-4.900216,-2.803776,33,592,-498
2442.742,1.128906,-8.542512,-10.08917,9.030929,0.03408846,-4.787298,-2.809102,48,568,-478
2442.746,1.132812,-8.834604,-9.92636,9.380482,0.07882957,-4.657336,-2.795254,96,564,-492
2442.75,1.136719,-9.040505,-9.825804,9.639056,0.0809601,-4.563593,-2.788862,91,559,-474
2442.754,1.140625,-9.059659,-9.528923,9.868899,0.07882957,-4.461327,-2.790993,43,609,-497
2442.758,1.144531,-9.107543,-9.246407,10.04128,0.07350325,-4.348409,-2.78034,59,608,-503
2442.762,1.148438,-9.102755,-9.227253,10.42914,0.08415589,-4.166249,-2.723881,67,587,-460
2442.766,1.152344,-9.299079,-9.528923,10.84573,0.0958738,-4.022439,-2.6589,74,592,-467
2442.77,1.15625,-9.696517,-9.955091,11.33894,0.0958738,-3.879693,-2.587527,91,589,-444
2442.773,1.160156,-10.98939,-10.4483,12.28225,0.0777643,-3.700729,-2.501241,25,590,-451
2442.777,1.164062,-12.05241,-10.80264,13.06276,0.0479369,-3.592072,-2.446912,68,627,-517
2442.781,1.167969,-13.23515,-11.08037,13.84806,0.004261058,-3.511112,-2.39791,71,629,-481
2442.785,1.171875,-14.82969,-11.47301,14.7818,-0.04261058,-3.432282,-2.354234,70,610,-492
2442.789,1.175781,-16.2279,-11.92791,15.4857,-0.06924219,-3.396063,-2.338255,74,565,-512
2442.793,1.179688,-17.61175,-12.64138,15.98369,-0.08202536,-3.393932,-2.338255,35,624,-446
2442.797,1.183594,-19.41698,-13.43626,16.18959,-0.09267801,-3.406716,-2.3553,55,612,-507
2442.801,1.1875,-20.36029,-14.23113,16.18959,-0.09800433,-3.438674,-2.421346,42,592,-489
2442.805,1.191406,-21.20305,-14.35563,15.85919,-0.09693906,-3.46424,-2.49698,68,646,-486
2442.809,1.195312,-21.98835,-13.90073,15.39472,-0.1097222,-3.468501,-2.584332,51,624,-455
2442.812,1.199219,-22.99391,-12.99094,14.46577,-0.1203749,-3.456783,-2.69725,60,645,-472
2442.816,1.203125,-23.73133,-12.23437,13.72356,-0.1363538,-3.414173,-2.799515,65,632,-518
2442.82,1.207031,-24.66028,-11.56399,12.97178,-0.1768339,-3.366236,-2.909237,80,586,-506
2442.824,1.210938,-26.49902,-10.95587,11.56878,-0.2364887,-3.28421,-3.038134,86,589,-454
2442.828,1.214844,-28.0792,-10.48181,10.16099,-0.2812298,-3.228817,-3.119094,44,637,-506
2442.832,1.21875,-29.1949,-9.533711,8.418013,-0.3440804,-3.196859,-3.197924,34,586,-482
2442.836,1.222656,-29.1518,-7.52737,5.66947,-0.4697816,-3.121225,-3.272492,61,631,-500
2442.84,1.226562,-28.42396,-5.540183,3.39019,-0.5858954,-2.993393,-3.255448,88,633,-512
2442.844,1.230469,-27.76316,-3.883395,1.335965,-0.6870956,-2.804841,-3.148922,77,595,-494
2442.848,1.234375,-28.01695,-2.853888,-0.3878607,-0.7190535,-2.554504,-2.979545,47,638,-457
2442.852,1.238281,-29.41037,-2.197877,-1.958457,-0.7265103,-2.222142,-2.707902,32,647,-464
2442.855,1.242188,-30.53086,-1.968034,-2.959233,-0.6913566,-2.034655,-2.494849,72,635,-495
2442.859,1.246094,-31.24433,-1.446098,-4.218583,-0.6370281,-1.863147,-2.299906,83,629,-454
2442.863,1.25,-31.7136,0.03351882,-5.736507,-0.5571333,-1.628789,-2.047438,67,623,-477
2442.867,1.253906,-32.08709,1.106121,-6.766014,-0.4676511,-1.475391,-1.835451,50,600,-482
2442.871,1.257812,-32.34088,1.742979,-7.742848,-0.3419499,-1.332646,-1.609615,53,638,-503
2442.875,1.261719,-32.51326,2.284068,-8.719682,-0.1842907,-1.132376,-1.34756,119,648,-500
2442.879,1.265625,-32.70001,2.801216,-9.289502,-0.06391587,-0.9843043,-1.183509,117,595,-500
2442.883,1.269531,-32.65691,3.438074,-9.768343,0.03621899,-0.8383631,-1.030111,68,598,-472
2442.887,1.273438,-32.2068,3.974375,-10.07001,0.1139833,-0.6636597,-0.8863,37,661,-477
2442.891,1.277344,-32.04878,4.692635,-10.07001,0.1800297,-0.4154531,-0.721184,40,659,-503
2442.895,1.28125,-32.13019,5.080496,-10.09395,0.1778992,-0.2567287,-0.6338323,118,628,-501
2442.898,1.285156,-31.84288,5.401319,-10.20409,0.1512675,-0.07350325,-0.5709817,76,608,-465
2442.902,1.289062,-30.93787,5.305551,-10.38605,0.1139833,0.1768339,-0.4900216,70,617,-513
2442.906,1.292969,-30.02329,4.88896,-10.37168,0.1182444,0.3717773,-0.3856257,28,637,-507
2442.91,1.296875,-29.26672,4.295198,-10.3621,0.1502023,0.5837649,-0.2567287,99,665,-500
2442.914,1.300781,-28.40481,3.667917,-9.811438,0.1992044,0.8852347,-0.07030745,92,636,-523
2442.918,1.304688,-27.84935,3.548207,-9.016563,0.2269013,1.099353,0.0809601,117,598,-457
2442.922,1.308594,-27.22686,3.490746,-7.838616,0.2386192,1.300688,0.2364887,91,636,-474
2442.926,1.3125,-26.52775,3.160346,-5.865794,0.2119876,1.526524,0.4207795,58,596,-489
2442.93,1.316406,-26.13032,2.595315,-4.453215,0.1523328,1.662878,0.5145227,99,643,-472
2442.934,1.320312,-21.46162,-7.019799,-1.833958,-0.002130529,1.744903,0.4868258,107,615,-502
2442.938,1.324219,-12.97657,-36.67917,1.206678,2.347843,2.15716,0.2769688,56,632,-480
2442.941,1.328125,0.7900865,-5.635951,10.20409,2.939065,3.320429,0.5113269,38,628,-455
2442.945,1.332031,5.085284,-3.366248,17.69315,3.444,3.281014,0.5784386,34,628,-471
2442.949,1.335938,24.69858,6.253655,17.4681,2.920955,3.528156,0.4452805,50,610,-505
2442.953,1.339844,44.34061,7.163451,27.34178,1.327319,4.295146,0.7701862,51,637,-473
2442.957,1.34375,50.64215,10.23282,28.83576,1.567004,5.797169,2.017611,-2,576,-489
2442.961,1.347656,33.68642,13.91031,26.58043,1.880192,6.259494,4.054396,33,646,-464
2442.965,1.351562,-19.50317,18.60774,24.82308,2.588593,6.008091,5.888782,59,629,-501
2442.969,1.355469,-70.8157,22.65872,23.79836,2.331864,5.557485,5.547897,109,584,-488
2442.973,1.359375,-95.12163,26.24524,22.57732,0.5603291,4.027765,3.851996,97,606,-495
2442.977,1.363281,-62.46472,9.825804,12.91911,-0.8170578,2.322276,1.026915,34,603,-446
2442.98,1.367188,-26.53733,-1.891419,8.973468,-0.7137272,2.27647,0.06391587,67,650,-510
2442.984,1.371094,-3.864241,-3.227384,18.64604,-1.096157,2.57794,0.753142,60,627,-506
2442.988,1.375,2.413355,-5.521029,23.96117,-0.8287757,2.272209,1.878061,56,604,-489
2442.992,1.378906,-2.149993,-8.719682,19.48401,-0.6114618,1.835451,2.189118,38,616,-433
2442.996,1.382812,-5.401319,-8.944737,10.43393,-1.015197,1.483913,1.861017,31,596,-473
2443,1.386719,-3.514688,-11.99495,2.379836,-1.345429,1.419997,1.683118,42,638,-512
2443.004,1.390625,2.547431,-15.1122,-4.141969,-1.042894,2.010154,1.554221,60,623,-459
2443.008,1.394531,2.786851,-15.45218,-2.643199,-0.7595335,2.53959,1.400823,45,593,-521
2443.012,1.398438,-12.07635,-22.20383,12.16733,1.155812,2.558765,1.359277,60,612,-448
2443.016,1.402344,-38.23061,-42.68862,20.34114,2.428803,0.757403,2.556635,77,606,-444
2443.02,1.40625,-37.90979,-42.90409,7.493851,1.55209,0.4250405,1.917476,35,618,-507
2443.023,1.410156,-27.76316,-15.95975,14.69561,1.257012,0.6721819,0.2428803,77,599,-494
2443.027,1.414062,-4.989516,13.05319,11.84172,1.036502,0.3568636,-0.2652508,69,612,-474
2443.031,1.417969,9.797073,20.65717,14.96376,0.9289106,0.2194445,0.4910869,45,609,-428
2443.035,1.421875,10.33337,11.29106,15.07389,0.5784386,0.007456851,0.7616641,16,596,-452
2443.039,1.425781,-0.6224924,-2.600103,11.65976,0.6061355,-0.1203749,0.4474111,78,618,-513
2443.043,1.429688,-15.06432,-10.62547,10.74518,0.4687164,-0.1842907,0.3696468,58,588,-509
2443.047,1.433594,-14.48492,-11.19529,7.852981,0.1992044,-0.2471413,0.664725,65,587,-473
2443.051,1.4375,-8.408436,-11.12346,5.755661,0.1736381,-0.2322276,0.4921522,58,597,-465
2443.055,1.441406,-2.853888,-9.461885,4.113238,0.3312972,-0.1235707,-0.07243798,37,620,-460
2443.059,1.445312,-2.260126,-9.442731,7.024588,0.5699165,0.02237055,-0.05858954,56,630,-508
2443.062,1.449219,-3.926491,-6.363788,9.342175,0.5177185,0.1533981,0.2173139,61,621,-473
2443.066,1.453125,-6.536171,0.296881,10.45308,0.2492719,0.1555286,0.3291667,39,591,-480
2443.07,1.457031,-6.133945,0.5841852,10.47703,0.1502023,-0.01917476,0.128897,17,612,-474
2443.074,1.460938,-4.783615,-3.442862,9.11712,0.05006743,-0.205596,-0.07030745,68,587,-505
2443.078,1.464844,-4.007894,-8.245631,7.177817,0.01384844,-0.2300971,-0.07456851,87,577,-486
2443.082,1.46875,-4.012682,-10.96066,6.033388,0.09693906,-0.09054748,0.05858954,85,590,-510
2443.086,1.472656,-4.13718,-9.040505,6.449979,0.1778992,0.006391587,0.1022654,42,626,-488
2443.09,1.476562,-4.309563,-6.14831,7.398083,0.2343582,0.05113269,0.1022654,64,605,-468
2443.094,1.480469,-4.271256,-4.22816,8.724471,0.2322276,0.03728426,0.07563377,29,614,-479
2443.098,1.484375,-4.367024,-4.007894,9.126697,0.1864213,-0.005326322,0.04900216,83,608,-531
2443.102,1.488281,-4.285621,-4.185065,8.90643,0.1331581,-0.05113269,0.05432849,52,601,-476
2443.105,1.492188,-4.156334,-5.295974,8.034941,0.08948221,-0.07989483,0.0777643,23,607,-465
2443.109,1.496094,-4.204218,-6.253655,7.608773,0.08841695,-0.06391587,0.05858954,31,629,-451
2443.113,1.5,-4.424485,-6.363788,7.690176,0.1054612,-0.03515373,0.0298274,66,628,-477
2443.117,1.503906,-4.290409,-5.626374,8.12592,0.1022654,-0.001065264,0.0330232,77,609,-531
2443.121,1.507812,-4.118027,-4.357447,8.523358,0.07456851,0.01278317,0.03621899,69,593,-447
2443.125,1.511719,-4.07972,-3.89776,8.75799,0.04687164,0.00958738,0.006391587,69,597,-455
2443.129,1.515625,-4.094085,-3.955221,8.724471,0.02130529,-0.008522115,-0.03089267,37,595,-477
2443.133,1.519531,-4.237737,-4.793192,8.303091,-0.01278317,-0.03089267,-0.05006743,14,622,-487
2443.137,1.523438,-4.156334,-5.506664,8.020576,-0.0181095,-0.02663161,-0.05539375,91,573,-502
2443.141,1.527344,-4.007894,-5.861006,7.867347,-0.006391587,-0.0149137,-0.05645902,58,595,-426
2443.145,1.53125,-3.806781,-5.832275,7.776367,0.0181095,-0.003195793,-0.05432849,28,581,-468
2443.148,1.535156,-3.840299,-5.516241,7.881712,0.03834952,0.01171791,-0.03834952,23,649,-470
2443.152,1.539062,-3.931279,-5.190629,8.015787,0.05113269,0.0181095,-0.02556635,63,536,-497
2443.156,1.542969,-4.209007,-5.166687,8.255207,0.05645902,0.003195793,-0.02663161,114,600,-497
2443.16,1.546875,-4.285621,-5.310339,8.178593,0.05113269,-0.01171791,-0.0298274,58,599,-504
2443.164,1.550781,-4.19943,-5.420473,8.135497,0.04048005,-0.02024002,-0.03195793,17,638,-484
2443.168,1.554688,-4.122815,-5.516241,7.97748,0.0330232,-0.01704423,-0.02876214,58,571,-488
2443.172,1.558594,-4.113238,-5.78918,7.680599,0.02130529,0.01278317,-0.02237055,79,566,-475
2443.176,1.5625,-4.055778,-5.880159,7.8865,0.0330232,0.02130529,-0.01171791,56,624,-457
2443.18,1.566406,-4.041412,-5.856217,7.905654,0.03408846,0.02769688,0.002130529,56,590,-490
2443.184,1.570312,-4.103662,-5.683835,7.934384,0.02663161,0.03408846,0.01917476,27,621,-461
2443.188,1.574219,-4.094085,-5.549759,8.082825,0.02556635,0.02556635,0.02663161,46,620,-511
2443.191,1.578125,-4.122815,-5.473145,8.00621,0.02024002,0.01597897,0.0330232,76,615,-475
2443.195,1.582031,-4.13718,-5.60722,8.034941,0.02237055,0.01278317,0.04048005,53,590,-467
2443.199,1.585938,-4.084508,-5.765238,7.991845,0.02130529,-0.003195793,0.04367584,13,616,-480
2443.203,1.589844,-4.098873,-5.875371,7.881712,0.02556635,-0.0149137,0.05113269,20,631,-518
2443.207,1.59375,-4.007894,-5.961562,7.843405,0.03834952,-0.01704423,0.06391587,48,598,-490
2443.211,1.597656,-3.974375,-5.975927,7.824251,0.04474111,-0.01597897,0.06924219,51,571,-492
2443.215,1.601562,-4.027047,-5.913678,7.742848,0.05858954,-0.01597897,0.0777643,40,561,-458
2443.219,1.605469,-3.98874,-5.971139,7.852981,0.06924219,-0.01597897,0.08415589,34,595,-476
2443.223,1.609375,-4.027047,-5.990293,7.85777,0.08841695,-0.01597897,0.08948221,48,582,-482
2443.227,1.613281,-4.070143,-5.856217,7.896077,0.09693906,-0.02130529,0.09374327,86,630,-490
2443.23,1.617188,-4.13718,-5.736507,7.929596,0.1022654,-0.03515373,0.1033307,75,582,-496
2443.234,1.621094,-4.271256,-5.554548,8.015787,0.108657,-0.04580637,0.1182444,62,567,-514
2443.238,1.625,-4.285621,-5.463568,7.900865,0.1043959,-0.05645902,0.1203749,19,641,-499
2443.242,1.628906,-4.352659,-5.506664,7.905654,0.1118528,-0.06817692,0.1225054,37,629,-474
2443.246,1.632812,-4.46758,-5.564125,8.00621,0.1203749,-0.09161274,0.1203749,19,640,-505
2443.25,1.636719,-4.419696,-5.406107,8.111555,0.1065264,-0.1012001,0.1310275,53,591,-498
2443.254,1.640625,-4.232949,-5.315128,8.09719,0.09267801,-0.1139833,0.1406149,70,565,-434
2443.258,1.644531,-3.98874,-5.3678,8.049306,0.09374327,-0.1257012,0.1533981,66,566,-471
2443.262,1.648438,-4.01747,-5.430049,7.972692,0.1001349,-0.1320928,0.1640507,47,637,-476
2443.266,1.652344,-4.204218,-5.525817,7.929596,0.1022654,-0.1278317,0.1768339,108,632,-484
2443.27,1.65625,-4.309563,-5.597643,7.97748,0.1054612,-0.1267665,0.1832255,76,583,-440
2443.273,1.660156,-4.256891,-5.544971,7.939173,0.1054612,-0.1395496,0.185356,25,601,-515
2443.277,1.664062,-4.252102,-5.353435,7.905654,0.108657,-0.1438107,0.1928129,34,607,-475
2443.281,1.667969,-4.285621,-5.420473,7.943961,0.1182444,-0.1523328,0.1992044,31,636,-471
2443.285,1.671875,-4.256891,-5.401319,8.015787,0.128897,-0.1555286,0.2045308,67,610,-506
2443.289,1.675781,-4.390966,-5.228936,8.087613,0.1310275,-0.1704423,0.2087918,88,610,-488
2443.293,1.679688,-4.462792,-5.027823,8.073248,0.1320928,-0.1800297,0.2109224,64,584,-440
2443.297,1.683594,-4.443638,-4.984728,8.025364,0.1384844,-0.1938781,0.2045308,27,628,-508
2443.301,1.6875,-4.343082,-5.190629,8.09719,0.144876,-0.205596,0.1928129,26,618,-470
2443.305,1.691406,-4.170699,-5.24809,8.101978,0.1480718,-0.2087918,0.1864213,36,589,-519
2443.309,1.695312,-4.055778,-5.372589,8.207323,0.1523328,-0.2098571,0.1864213,102,550,-503
2443.312,1.699219,-3.907337,-5.190629,8.192958,0.1406149,-0.1949434,0.201335,29,586,-448
2443.316,1.703125,-3.955221,-5.018247,8.255207,0.1331581,-0.1768339,0.2130529,57,582,-513
2443.32,1.707031,-4.084508,-5.003881,8.312668,0.1235707,-0.1672465,0.2162487,58,613,-493
2443.324,1.710938,-4.098873,-5.00867,8.446743,0.1097222,-0.1576591,0.2151834,83,597,-501
2443.328,1.714844,-4.089296,-5.094861,8.355764,0.09374327,-0.1470065,0.221575,76,595,-439
2443.332,1.71875,-3.983952,-5.09965,8.341399,0.07669904,-0.1363538,0.2247708,75,606,-459
2443.336,1.722656,-3.821146,-5.133168,8.389283,0.05113269,-0.1075917,0.2343582,36,622,-532
2443.34,1.726562,-3.840299,-5.070919,8.475474,0.03408846,-0.08628642,0.2439456,47,605,-506
2443.344,1.730469,-3.849876,-5.0374,8.408436,0.01917476,-0.06178534,0.2567287,57,615,-463
2443.348,1.734375,-3.912126,-5.161899,8.508993,-0.007456851,-0.03195793,0.2759035,43,573,-458
2443.352,1.738281,-4.041412,-5.032612,8.212112,-0.03621899,-0.004261058,0.2854909,39,623,-462
2443.355,1.742188,-3.864241,-5.549759,8.90643,-0.05326322,0.02450108,0.3195793,10,612,-504
2443.359,1.746094,-3.902549,-5.521029,8.365341,-0.07989483,0.05113269,0.3206446,45,564,-531
2443.363,1.75,-3.797204,-4.491522,8.5473,-0.1406149,0.1257012,0.3451457,43,583,-480
2443.367,1.753906,-3.945644,-4.721366,8.69574,-0.149137,0.1459412,0.366451,62,567,-472
2443.371,1.757812,-4.07972,-5.109226,8.451532,-0.1608549,0.181095,0.3494067,35,606,-484
2443.375,1.761719,-4.161122,-5.267244,8.566454,-0.1747034,0.2237055,0.3462109,75,603,-523
2443.379,1.765625,-4.041412,-5.252878,8.398859,-0.2034655,0.2503371,0.3728426,47,603,-479
2443.383,1.769531,-4.113238,-5.391742,8.599972,-0.2130529,0.2929477,0.386691,56,582,-486
2443.387,1.773438,-3.720589,-4.879383,8.508993,-0.2247708,0.3185141,0.3856257,45,599,-454
2443.391,1.777344,-3.945644,-4.156334,8.236054,-0.2876214,0.3739078,0.4175837,39,605,-513
2443.395,1.78125,-4.46758,-3.998317,8.298303,-0.3515373,0.4261058,0.4644553,67,598,-522
2443.398,1.785156,-4.812345,-4.443638,8.403648,-0.4314321,0.4420847,0.4719121,52,569,-479
2443.402,1.789062,-4.563348,-5.568913,8.801085,-0.5901565,0.459129,0.4836301,47,580,-453
2443.406,1.792969,-3.667917,-7.024588,9.275137,-0.5954828,0.4804343,0.4655206,21,597,-465
2443.41,1.796875,-2.135628,-7.680599,9.361328,-0.5741775,0.5486112,0.4655206,63,608,-484
2443.414,1.800781,-1.565808,-6.378153,9.002198,-0.5123922,0.7648599,0.5038701,52,599,-468
2443.418,1.804688,-2.336741,-4.654328,8.920795,-0.4814995,0.9310411,0.5592638,86,611,-479
2443.422,1.808594,-3.806781,-4.333505,8.743624,-0.5262406,1.049285,0.5816344,50,589,-487
2443.426,1.8125,-4.941632,-8.384494,8.676587,-0.3568636,1.131311,0.4250405,-26,617,-445
2443.43,1.816406,-3.682282,-5.501875,9.643844,-0.2801645,1.283644,0.3728426,54,592,-480
2443.434,1.820312,-3.055001,-4.975151,10.79785,-0.8756474,1.343298,0.6018744,48,654,-492
2443.438,1.824219,-0.8236054,-7.340622,7.455544,-0.4751079,1.300688,0.680704,38,579,-460
2443.441,1.828125,-0.8236054,-6.670246,7.661445,-0.3994742,1.774731,0.6029397,77,612,-465
2443.445,1.832031,-3.41892,-4.64954,9.71567,-0.4410195,1.998436,0.5890912,11,594,-470
2443.449,1.835938,-4.88896,-3.744531,9.763554,-0.4452805,2.05383,0.6583334,34,580,-514
2443.453,1.839844,-3.983952,-5.305551,9.921572,-0.5123922,2.17527,0.5986786,61,574,-484
2443.457,1.84375,-2.892196,-5.870582,9.495404,-0.5028048,2.272209,0.5187838,63,564,-466
2443.461,1.847656,-2.801216,-6.086061,8.920795,-0.4538026,2.466087,0.5667207,22,598,-496
2443.465,1.851562,-3.725378,-6.804321,9.232042,-0.3451457,2.749448,0.7052051,74,631,-498
2443.469,1.855469,-4.271256,-6.823475,9.179369,-0.3419499,2.895389,0.7680557,42,595,-505
2443.473,1.859375,-4.333505,-6.200982,8.791508,-0.3824299,3.011503,0.809601,51,584,-481
2443.477,1.863281,-4.141969,-6.272808,8.580819,-0.4250405,3.187271,0.8937569,47,633,-459
2443.48,1.867188,-4.367024,-6.756437,8.446743,-0.4314321,3.333212,1.001349,1,552,-445
2443.484,1.871094,-4.371812,-6.98628,8.09719,-0.4676511,3.474893,1.12918,55,560,-493
2443.488,1.875,-4.419696,-6.967127,8.09719,-0.556068,3.622964,1.239968,91,613,-511
2443.492,1.878906,-4.520253,-6.890512,7.73806,-0.5837649,3.816842,1.384844,40,603,-468
2443.496,1.882812,-3.711013,-7.120356,6.971915,-0.6135923,4.016047,1.432781,-5,582,-465
2443.5,1.886719,-4.860229,-8.829816,9.581595,-0.5997439,4.245079,1.493501,29,585,-427
2443.504,1.890625,-4.118027,-6.962338,8.801085,-0.4868258,4.419782,1.780057,8,618,-493
2443.508,1.894531,-3.998317,-5.468357,9.184158,-0.6562029,4.529504,2.025068,11,588,-480
2443.512,1.898438,-3.485958,-5.353435,8.585607,-0.7041398,4.719121,2.131594,92,583,-466
2443.516,1.902344,-3.165135,-6.469133,9.433155,-0.7552725,5.113269,2.177401,49,552,-463
2443.52,1.90625,-3.241749,-6.253655,9.47625,-0.7552725,5.424327,2.272209,59,575,-430
2443.523,1.910156,-3.213019,-6.502652,9.47625,-0.8277105,5.710883,2.379801,24,557,-505
2443.527,1.914062,-3.591302,-6.852205,8.643068,-0.902279,6.041115,2.51722,33,560,-467
2443.531,1.917969,-3.859453,-7.302315,8.571242,-1.013066,6.302104,2.694054,49,603,-461
2443.535,1.921875,-4.309563,-7.40766,8.676587,-1.143029,6.590791,2.92202,29,562,-452
2443.539,1.925781,-4.34787,-7.019799,9.624691,-1.330515,6.900783,3.143595,22,592,-478
2443.543,1.929688,-3.366248,-6.076484,9.71567,-1.628789,7.316236,3.382215,70,587,-455
2443.547,1.933594,-2.140416,-6.421249,10.31901,-1.842907,7.716776,3.564375,43,554,-482
2443.551,1.9375,-0.8092402,-7.862558,10.27113,-2.002697,8.190818,3.758253,51,571,-462
2443.555,1.941406,0.1915361,-9.030929,10.63983,-2.171009,8.96207,4.045874,19,601,-458
2443.559,1.945312,-0.7805097,-9.591172,10.70687,-2.211489,9.615077,4.307929,23,591,-450
2443.562,1.949219,-3.069367,-10.14663,9.624691,-2.309493,10.19245,4.534831,20,577,-460
2443.566,1.953125,-8.087613,-9.916783,5.93762,-2.689793,10.78367,4.786233,30,600,-449
2443.57,1.957031,-13.04361,-8.116344,3.026271,-3.151052,11.12562,4.860802,72,618,-457
2443.574,1.960938,-22.55817,-7.967903,7.187393,-3.722034,11.17249,4.820322,13,596,-402
2443.578,1.964844,-43.25365,-11.95664,10.79785,-3.68475,10.24145,4.845888,-2,631,-447
2443.582,1.96875,-54.61174,-17.98045,12.53604,-3.30232,9.011072,5.147358,35,595,-483
2443.586,1.972656,-51.45618,-20.26931,11.31979,-2.864496,7.725298,5.230448,-18,576,-384
2443.59,1.976562,-44.76678,-18.32043,12.53604,-2.535329,6.519418,5.170794,18,580,-403
2443.594,1.980469,-34.41425,-13.49372,9.557653,-2.299906,5.493569,5.350823,-14,602,-428
2443.598,1.984375,-28.2037,-12.69406,10.27591,-2.520416,5.2166,5.197425,-28,615,-412
2443.602,1.988281,-25.58444,-12.81377,11.12825,-2.953978,5.070659,4.938566,-12,581,-434
2443.605,1.992188,-24.68422,-18.09538,12.05241,-3.111637,4.701012,5.057876,15,585,-392
2443.609,1.996094,-21.64358,-21.4712,12.28225,-3.456783,4.770254,4.963067,14,580,-415
2443.613,2,-21.23178,-21.17432,14.48013,-3.762514,4.75321,4.554005,-12,626,-411
2443.617,2.003906,-18.90462,-16.25184,12.77546,-3.945739,4.517786,4.302603,17,662,-427
2443.621,2.007812,-17.06587,-15.50964,12.34929,-4.093811,4.453871,4.340953,-4,571,-450
2443.625,2.011719,-14.47055,-15.93102,11.66934,-4.140683,4.435761,4.382498,4,628,-418
2443.629,2.015625,-10.91756,-17.7554,11.96622,-4.401673,4.49222,4.136422,-47,603,-409
2443.633,2.019531,-11.30063,-23.27164,12.12424,-4.536961,4.428304,3.502589,-37,635,-400
2443.637,2.023438,-13.69962,-25.7664,13.57512,-4.317517,4.115117,2.915629,-16,595,-436
2443.641,2.027344,-17.96609,-26.59958,16.1034,-4.003264,3.497263,2.229598,-3,615,-431
2443.645,2.03125,-22.47198,-30.18609,19.12967,-3.341735,2.226403,1.342233,-2,594,-406
2443.648,2.035156,-21.56697,-30.80859,21.78245,-2.663161,0.999218,0.6785734,-45,660,-439
2443.652,2.039062,-17.44894,-25.63232,24.79914,-2.311624,-0.149137,0.004261058,-45,658,-416
2443.656,2.042969,-16.1465,-31.47896,23.39614,-1.744903,-1.344364,-0.9246495,-18,623,-420
2443.66,2.046875,-9.763554,-26.31706,20.43691,-0.829841,-2.044242,-1.300688,-36,598,-390
2443.664,2.050781,-5.310339,-21.46162,16.54872,-0.5305017,-2.704706,-1.176052,-23,612,-416
2443.668,2.054688,2.331952,-22.23735,7.484274,0.7403588,-2.691923,-1.036502,-15,603,-395
2443.672,2.058594,5.24809,-21.23178,3.634398,1.778992,-2.324407,-0.9875001,-31,653,-427
2443.676,2.0625,4.285621,-17.425,3.102885,2.60031,-2.057026,-0.8117315,22,615,-426
2443.68,2.066406,0.842759,-13.2974,5.664681,3.051983,-2.002697,-0.7020093,-2,581,-391
2443.684,2.070312,-2.331952,-12.23916,9.825804,3.455718,-2.473544,-0.9938917,-19,617,-441
2443.688,2.074219,-2.911349,-9.126697,11.30063,3.265035,-2.783536,-1.314536,-3,606,-407
2443.691,2.078125,-4.127604,-4.501099,11.87045,2.771818,-3.085006,-1.555286,-55,586,-433
2443.695,2.082031,-6.359,0.3064578,11.84651,2.146508,-3.510046,-1.834385,-46,594,-429
2443.699,2.085938,-7.043741,0.3495534,11.77468,1.69164,-3.827495,-2.048504,-2,627,-398
2443.703,2.089844,-7.139509,-2.743755,11.08037,1.255947,-4.203533,-2.250904,-11,573,-432
2443.707,2.09375,-6.636727,-7.177817,8.987833,0.7904262,-4.628574,-2.592854,-27,599,-422
2443.711,2.097656,-4.352659,-7.455544,7.694964,0.4814995,-4.801147,-2.913498,16,619,-448
2443.715,2.101562,-0.7038953,-5.24809,6.191405,0.2141182,-4.958806,-3.103115,-22,562,-417
2443.719,2.105469,2.911349,-3.107674,4.031836,-0.03834952,-4.964132,-3.056244,-5,562,-401
2443.723,2.109375,4.19943,-2.27928,3.586514,-0.08522115,-4.844823,-2.96037,-17,596,-413
2443.727,2.113281,4.218583,-2.446874,3.696647,-0.09374327,-4.75534,-2.883671,-18,627,-441
2443.73,2.117188,3.576937,-3.021482,3.816357,-0.08628642,-4.706338,-2.808037,8,627,-444
2443.734,2.121094,2.106897,-4.156334,4.161122,-0.05219796,-4.662662,-2.69938,-3,584,-418
2443.738,2.125,1.134852,-4.659116,4.462792,-0.008522115,-4.659467,-2.643986,-18,554,-396
2443.742,2.128906,0.5315128,-4.908113,4.76925,0.01597897,-4.683968,-2.602441,6,594,-446
2443.746,2.132812,-0.1053449,-5.281609,5.315128,0.06391587,-4.719121,-2.563026,-65,570,-446
2443.75,2.136719,-0.3926491,-5.482722,5.549759,0.108657,-4.738296,-2.551308,-22,604,-461
2443.754,2.140625,-0.7374141,-5.57849,5.837064,0.1395496,-4.751079,-2.579005,-2,568,-428
2443.758,2.144531,-1.125275,-5.439626,5.880159,0.2045308,-4.812865,-2.650378,9,583,-467
2443.762,2.148438,-1.240196,-5.042189,5.832275,0.2567287,-4.881042,-2.689793,4,607,-409
2443.766,2.152344,-1.067814,-4.673482,5.492299,0.3025351,-4.910869,-2.714294,-12,547,-486
2443.77,2.15625,-0.9097966,-4.496311,5.305551,0.3334278,-4.909804,-2.726012,29,562,-459
2443.773,2.160156,-1.096544,-4.371812,5.57849,0.3568636,-4.899151,-2.763296,-18,562,-444
2443.777,2.164062,-1.431733,-4.299986,5.717354,0.3792341,-4.89489,-2.810168,-13,561,-411
2443.781,2.167969,-2.054225,-4.304775,6.100426,0.4037352,-4.879976,-2.864496,-14,600,-472
2443.785,2.171875,-2.973598,-4.654328,6.50744,0.4655206,-4.883172,-2.939065,-22,583,-480
2443.789,2.175781,-3.648763,-5.181052,6.766014,0.519849,-4.906608,-2.993393,11,573,-445
2443.793,2.179688,-3.96001,-5.72693,6.86657,0.5795039,-4.952414,-3.063701,20,563,-459
2443.797,2.183594,-4.036624,-6.531382,6.95755,0.6498113,-4.985438,-3.181945,-5,608,-404
2443.801,2.1875,-4.046201,-6.74686,7.120356,0.7307714,-5.005678,-3.257579,-12,605,-491
2443.805,2.191406,-4.223372,-6.80911,7.264008,0.8032094,-5.013134,-3.323625,-4,570,-488
2443.809,2.195312,-4.582502,-6.622362,7.503428,0.8841695,-5.024852,-3.402455,-17,547,-479
2443.812,2.199219,-4.960786,-6.339846,7.64708,0.9289106,-5.042962,-3.463175,-6,553,-422
2443.816,2.203125,-5.45878,-6.234501,7.915231,0.9534117,-5.072789,-3.517503,-5,586,-472
2443.82,2.207031,-5.702988,-6.100426,8.073248,0.9651296,-5.104747,-3.578223,16,587,-496
2443.824,2.210938,-5.923255,-5.712565,8.279149,0.9363674,-5.147358,-3.665575,9,584,-496
2443.828,2.214844,-5.966351,-5.612009,8.379706,0.9044095,-5.166533,-3.717773,33,574,-501
2443.832,2.21875,-5.980716,-5.549759,8.528146,0.8724516,-5.175055,-3.761449,12,570,-479
2443.836,2.222656,-6.0286,-5.717354,8.777143,0.8372978,-5.160141,-3.807255,-3,564,-483
2443.84,2.226562,-6.421249,-5.951985,9.150639,0.8000136,-5.147358,-3.832821,-18,591,-478
2443.844,2.230469,-7.015011,-6.153098,9.351752,0.7627293,-5.145227,-3.856257,77,548,-503
2443.848,2.234375,-7.73806,-6.234501,9.610325,0.700944,-5.142031,-3.904194,14,557,-467
2443.852,2.238281,-8.135497,-6.133945,9.643844,0.6338323,-5.138836,-3.944674,4,567,-487
2443.855,2.242188,-8.403648,-5.84664,9.662998,0.5784386,-5.13777,-3.963849,39,592,-486
2443.859,2.246094,-8.834604,-5.401319,9.543288,0.4804343,-5.122857,-3.958523,41,601,-495
2443.863,2.25,-8.99741,-4.802769,9.792285,0.3163835,-5.078116,-3.945739,29,561,-482
2443.867,2.253906,-9.232042,-4.702212,10.21366,0.1896171,-5.008873,-3.92763,33,556,-497
2443.871,2.257812,-9.725247,-5.061342,10.76912,0.108657,-4.960936,-3.891411,-13,587,-485
2443.875,2.261719,-10.56322,-6.234501,11.70765,-0.006391587,-4.905543,-3.80832,56,644,-505
2443.879,2.265625,-11.28148,-7.192182,11.68849,-0.07350325,-4.835235,-3.740143,48,596,-514
2443.883,2.269531,-11.42034,-8.130709,12.33493,-0.1065264,-4.77558,-3.701794,45,565,-494
2443.887,2.273438,-11.86088,-9.524134,12.92869,-0.1523328,-4.695686,-3.658118,48,576,-487
2443.891,2.277344,-12.51689,-10.56322,13.78102,-0.1225054,-4.580637,-3.567571,19,594,-476
2443.895,2.28125,-13.20642,-11.58315,14.90151,-0.1214401,-4.46985,-3.439739,1,621,-514
2443.898,2.285156,-14.38436,-12.69885,16.61576,-0.112918,-4.335626,-3.358779,76,634,-478
2443.902,2.289062,-16.15128,-13.02446,17.56386,-0.09800433,-4.275971,-3.384345,37,549,-512
2443.906,2.292969,-18.27255,-13.08671,18.13847,-0.1161138,-4.242948,-3.386476,-19,592,-488
2443.91,2.296875,-20.24058,-13.61343,18.11453,-0.1757686,-4.215251,-3.334278,31,614,-485
2443.914,2.300781,-22.4624,-14.29338,18.00918,-0.294013,-4.13003,-3.272492,23,611,-506
2443.918,2.304688,-24.34424,-14.44661,18.03313,-0.3834952,-4.062919,-3.252252,65,617,-490
2443.922,2.308594,-26.68098,-14.46098,18.15763,-0.4665858,-4.059723,-3.218164,58,643,-519
2443.926,2.3125,-29.51093,-15.29416,17.54471,-0.531567,-4.118312,-3.164901,37,588,-501
2443.93,2.316406,-31.60825,-16.13213,16.58224,-0.519849,-4.160923,-3.139334,17,607,-475
2443.934,2.320312,-33.3225,-16.64449,15.11699,-0.4623248,-4.244014,-3.109507,37,615,-510
2443.938,2.324219,-34.70635,-16.54872,12.79461,-0.3526025,-4.278102,-3.095658,51,557,-526
2443.941,2.328125,-35.54911,-15.95017,10.99896,-0.2407498,-4.321778,-3.088202,54,611,-500
2443.945,2.332031,-35.9657,-14.83447,8.75799,-0.1342233,-4.351605,-3.078614,15,615,-474
2443.949,2.335938,-35.16603,-12.68448,4.750096,0.008522115,-4.33243,-3.04346,35,667,-570
2443.953,2.339844,-33.447,-10.08438,1.177947,0.03195793,-4.220578,-2.98061,42,639,-530
2443.957,2.34375,-31.10547,-6.660669,-2.15957,-0.02663161,-3.987285,-2.874083,60,620,-530
2443.961,2.347656,-29.44868,-3.260903,-5.051766,-0.1320928,-3.62403,-2.687662,31,640,-495
2443.965,2.351562,-29.39601,-0.6512229,-7.311892,-0.2908172,-3.06157,-2.333994,19,645,-516
2443.969,2.355469,-30.79422,-0.3112462,-8.269573,-0.390952,-2.664226,-2.080461,61,658,-484
2443.973,2.359375,-32.26426,-0.6129156,-8.916007,-0.4985438,-2.31482,-1.911084,53,610,-503
2443.977,2.363281,-33.50925,-1.192312,-9.485827,-0.5784386,-1.944108,-1.767274,103,609,-515
2443.98,2.367188,-33.71994,-1.762132,-10.01255,-0.531567,-1.705488,-1.657551,54,622,-514
2443.984,2.371094,-33.45657,-2.255338,-10.61589,-0.386691,-1.499892,-1.530785,-5,636,-495
2443.988,2.375,-32.65691,-1.972822,-11.63582,-0.1012001,-1.177117,-1.397627,5,653,-525
2443.992,2.378906,-32.61382,-0.6560113,-12.1003,0.1320928,-0.9182579,-1.314536,85,580,-538
2443.996,2.382812,-33.09266,1.015142,-12.37323,0.3557983,-0.6583334,-1.209075,77,625,-536
2444,2.386719,-34.12216,2.422932,-12.23916,0.5102617,-0.4101268,-1.102549,37,649,-499
2444.004,2.390625,-34.66804,3.32794,-12.06199,0.6338323,-0.108657,-1.004544,20,611,-488
2444.008,2.394531,-34.88352,3.845088,-12.12903,0.6593987,0.08202536,-0.9491506,43,683,-498
2444.012,2.398438,-34.70156,4.410119,-12.19606,0.6519418,0.2695119,-0.8916263,54,594,-519
2444.016,2.402344,-33.66248,5.032612,-12.33972,0.6274408,0.5049353,-0.8032094,33,631,-491
2444.02,2.40625,-31.98175,5.3678,-12.4307,0.6018744,0.7137272,-0.716923,33,632,-469
2444.023,2.410156,-29.98498,5.602432,-12.07635,0.5890912,0.9598033,-0.6178534,54,615,-476
2444.027,2.414062,-27.89245,5.6982,-10.97981,0.6061355,1.333711,-0.4644553,44,648,-512
2444.031,2.417969,-26.87731,5.243302,-9.504981,0.6412892,1.620267,-0.3579289,33,604,-507
2444.035,2.421875,-26.26439,4.223372,-7.800309,0.6934871,1.878061,-0.2769688,53,640,-527
2444.039,2.425781,-25.54134,2.533065,-5.257667,0.7808388,2.174205,-0.2237055,40,629,-511
2444.043,2.429688,-20.34114,-1.527501,-2.710236,0.757403,2.326538,-0.2450108,25,610,-498
2444.047,2.433594,-16.27099,-25.63232,-2.006341,2.261556,2.811233,-0.3323625,48,620,-539
2444.051,2.4375,-2.063802,-3.064578,6.445191,2.690858,3.724164,0.1757686,10,632,-507
2444.055,2.441406,2.087744,5.60722,13.44584,2.830408,3.999003,0.1022654,36,580,-530
2444.059,2.445312,22.8742,7.881712,18.22945,1.901497,4.183293,-0.1214401,26,649,-510
2444.062,2.449219,40.65354,6.430826,21.78245,0.6476808,4.792625,0.3387541,11,625,-539
2444.066,2.453125,49.60307,4.850653,25.91484,0.9480853,6.68773,2.0762,80,619,-536
2444.07,2.457031,33.30813,9.481039,27.82062,1.51161,7.127684,4.060788,27,640,-493
2444.074,2.460938,-9.308656,15.59104,24.23411,2.224272,6.751646,5.415804,24,615,-451
2444.078,2.464844,-77.86901,25.90047,22.00271,1.209075,4.151336,5.39876,7,639,-476
2444.082,2.46875,-89.14092,24.90449,16.21353,0.1363538,4.222708,4.147074,0,597,-518
2444.086,2.472656,-63.20692,15.6485,11.88482,-0.7446198,3.419499,2.251969,23,604,-472
2444.09,2.476562,-24.46874,9.193734,11.92312,-0.5997439,3.185141,1.045024,-7,604,-470
2444.094,2.480469,-9.184158,6.076484,21.70104,-0.850081,3.326821,1.668204,12,587,-478
2444.098,2.484375,-6.651092,3.648763,29.00336,-1.014132,2.949717,2.512959,40,640,-507
2444.102,2.488281,-9.562441,-0.6512229,26.62831,-1.133441,2.37554,2.726012,33,636,-521
2444.105,2.492188,-10.19451,-5.750872,15.83046,-2.107093,1.639442,2.370213,53,583,-527
2444.109,2.496094,-8.57603,-8.901642,7.40766,-2.59818,1.378452,2.061287,49,588,-503
2444.113,2.5,-6.311116,-12.69406,3.495534,-2.649313,1.42852,1.881257,-4,617,-481
2444.117,2.503906,-18.69393,-27.95949,27.65303,0.4601942,1.018393,2.182727,18,638,-511
2444.121,2.507812,-31.39756,-65.52451,8.700529,1.50948,-0.9150622,3.135073,23,582,-493
2444.125,2.511719,-29.4391,-75.3982,-15.36599,0.5592638,-0.8330368,2.221076,59,575,-492
2444.129,2.515625,-20.16397,-32.20201,0.3974375,1.763013,0.334493,-0.2087918,41,577,-489
2444.133,2.519531,-6.904878,10.48181,1.881843,2.068744,0.5528722,0.02450108,16,609,-443
2444.137,2.523438,6.976704,23.1232,17.32923,2.262622,0.628506,1.365669,22,616,-495
2444.141,2.527344,5.166687,17.70273,20.41775,1.75236,0.108657,1.708684,50,610,-489
2444.145,2.53125,-9.346963,6.909666,18.38268,1.246359,-0.3643204,0.5635249,52,574,-499
2444.148,2.535156,-19.55584,4.630386,17.80807,0.8053399,-0.6796387,0.3845605,9,604,-439
2444.152,2.539062,-15.84483,-2.446874,9.959879,0.2652508,-0.9843043,0.9406285,44,581,-494
2444.156,2.542969,-3.251326,-17.674,2.422932,0.06711166,-0.9459548,0.5635249,14,609,-511
2444.16,2.546875,-0.5075708,-18.10495,0.03351882,0.4442153,-0.5368933,-0.09374327,29,597,-507
2444.164,2.550781,-1.584961,-15.45697,3.615245,0.8980179,-0.1544633,-0.03408846,33,600,-524
2444.168,2.554688,-4.510676,-3.912126,10.86489,0.9704559,0.1555286,0.6562029,-16,613,-461
2444.172,2.558594,-6.694188,5.329493,13.69005,0.6423545,0.1118528,0.8127968,-4,618,-537
2444.176,2.5625,-6.785168,7.924807,14.24071,0.3281014,-0.1672465,0.4761732,33,597,-493
2444.18,2.566406,-5.324704,1.182736,9.873688,0.05752428,-0.5145227,-0.04900216,-1,582,-502
2444.184,2.570312,-4.927267,-7.675811,6.430826,0.008522115,-0.4836301,-0.09906959,-6,594,-535
2444.188,2.574219,-5.190629,-13.66131,5.075708,0.1139833,-0.3057309,-0.02769688,-26,594,-475
2444.191,2.578125,-5.070919,-12.44027,6.220136,0.2407498,-0.1075917,0.01278317,18,608,-511
2444.195,2.582031,-3.969586,-4.19943,8.805874,0.2854909,-0.02556635,0.1012001,16,635,-532
2444.199,2.585938,-3.021482,-1.244985,9.409213,0.2109224,-0.09054748,0.1416802,2,591,-527
2444.203,2.589844,-2.925714,-2.403778,9.23683,0.1800297,-0.1747034,0.07137272,11,583,-490
2444.207,2.59375,-4.46758,-5.032612,8.312668,0.1640507,-0.1821602,0.01704423,11,617,-468
2444.211,2.597656,-5.343858,-6.536171,8.020576,0.1427454,-0.1502023,0.06178534,0,646,-513
2444.215,2.601562,-5.046977,-7.04853,7.876923,0.1352886,-0.1438107,0.05326322,36,604,-464
2444.219,2.605469,-3.816357,-5.626374,8.221689,0.1363538,-0.128897,0.01171791,36,620,-479
2444.223,2.609375,-3.169923,-4.458003,8.480262,0.1214401,-0.1075917,0.03834952,-13,593,-493
2444.227,2.613281,-3.174711,-3.983952,8.619126,0.09693906,-0.09161274,0.07669904,34,599,-485
2444.23,2.617188,-3.955221,-4.055778,8.647856,0.07243798,-0.08309063,0.07563377,32,589,-515
2444.234,2.621094,-4.520253,-4.510676,8.676587,0.04048005,-0.07669904,0.02769688,16,623,-530
2444.238,2.625,-4.539406,-4.783615,8.66701,0.008522115,-0.07669904,-0.001065264,72,591,-484
2444.242,2.628906,-4.194641,-4.740519,8.552088,-0.02237055,-0.07030745,-0.01704423,11,587,-504
2444.246,2.632812,-3.74932,-4.793192,8.293515,-0.04900216,-0.06072007,-0.0298274,-36,630,-472
2444.25,2.636719,-3.787627,-4.970363,8.207323,-0.0479369,-0.06072007,-0.03728426,34,657,-505
2444.254,2.640625,-3.921702,-5.315128,8.154651,-0.03621899,-0.05752428,-0.04048005,51,607,-526
2444.258,2.644531,-4.031836,-5.702988,8.140286,-0.02663161,-0.05965481,-0.04048005,10,588,-482
2444.262,2.648438,-3.888183,-5.779603,8.06846,-0.01171791,-0.06178534,-0.03728426,-7,597,-493
2444.266,2.652344,-3.711013,-5.626374,8.063671,0.01065264,-0.0628506,-0.02876214,23,645,-510
2444.27,2.65625,-3.773262,-5.430049,8.063671,0.0330232,-0.05113269,-0.0149137,20,644,-493
2444.273,2.660156,-3.916914,-5.377377,8.087613,0.04900216,-0.05113269,-0.01597897,-9,631,-519
2444.277,2.664062,-4.041412,-5.439626,8.054094,0.06072007,-0.05006743,-0.01597897,16,603,-489
2444.281,2.667969,-4.165911,-5.530606,8.054094,0.07137272,-0.05006743,-0.01917476,-10,581,-494
2444.285,2.671875,-4.295198,-5.731719,8.039729,0.0777643,-0.05113269,-0.02663161,12,591,-529
2444.289,2.675781,-4.19943,-5.841852,8.111555,0.07882957,-0.06391587,-0.02663161,33,634,-547
2444.293,2.679688,-3.926491,-5.956774,7.996634,0.08415589,-0.06711166,-0.02024002,7,595,-461
2444.297,2.683594,-3.667917,-5.808333,8.087613,0.09800433,-0.06924219,-0.001065264,0,582,-519
2444.301,2.6875,-3.682282,-5.640739,8.06846,0.09906959,-0.06924219,0.02237055,-21,560,-478
2444.305,2.691406,-3.763685,-5.521029,8.18817,0.1054612,-0.0628506,0.03941478,-1,600,-509
2444.309,2.695312,-4.041412,-5.482722,8.116344,0.1150486,-0.07456851,0.0479369,-9,618,-493
2444.312,2.699219,-4.252102,-5.45878,8.207323,0.1161138,-0.0777643,0.05432849,28,561,-529
2444.316,2.703125,-4.299986,-5.439626,8.207323,0.1171791,-0.09267801,0.05113269,28,572,-479
2444.32,2.707031,-4.070143,-5.324704,8.30788,0.1150486,-0.1107875,0.0479369,41,623,-456
2444.324,2.710938,-3.902549,-5.190629,8.30788,0.112918,-0.112918,0.05539375,7,626,-521
2444.328,2.714844,-3.758897,-5.142745,8.269573,0.1107875,-0.1054612,0.0628506,26,616,-487
2444.332,2.71875,-3.773262,-5.003881,8.283938,0.1097222,-0.09800433,0.07243798,43,628,-498
2444.336,2.722656,-3.907337,-4.975151,8.346187,0.1033307,-0.08628642,0.08202536,7,576,-483
2444.34,2.726562,-4.065354,-4.927267,8.389283,0.09906959,-0.07669904,0.07882957,20,616,-517
2444.344,2.730469,-4.118027,-4.735731,8.461109,0.08522115,-0.07030745,0.0777643,29,590,-527
2444.348,2.734375,-4.118027,-4.730942,8.441955,0.07563377,-0.07350325,0.07137272,26,596,-511
2444.352,2.738281,-4.060566,-4.850653,8.408436,0.06498113,-0.0777643,0.06711166,50,621,-464
2444.355,2.742188,-3.993528,-5.023035,8.33661,0.05965481,-0.08628642,0.07030745,-15,611,-503
2444.359,2.746094,-3.89776,-5.214571,8.192958,0.05432849,-0.08628642,0.08628642,-3,615,-517
2444.363,2.75,-3.888183,-5.372589,8.149862,0.05752428,-0.08948221,0.1043959,45,624,-502
2444.367,2.753906,-3.849876,-5.535394,8.159439,0.06072007,-0.08628642,0.1203749,30,656,-518
2444.371,2.757812,-3.892972,-5.511452,8.154651,0.06924219,-0.08948221,0.1374191,54,608,-472
2444.375,2.761719,-3.950433,-5.358223,8.106767,0.07669904,-0.08948221,0.1565939,11,572,-491
2444.379,2.765625,-4.046201,-5.3678,8.178593,0.08735168,-0.1012001,0.1672465,-23,627,-497
2444.383,2.769531,-4.003105,-5.377377,8.106767,0.09800433,-0.1065264,0.1768339,45,602,-537
2444.387,2.773438,-4.070143,-5.420473,8.078036,0.108657,-0.1043959,0.1864213,12,587,-500
2444.391,2.777344,-4.074931,-5.3678,8.06846,0.1257012,-0.1065264,0.1885518,-10,607,-485
2444.395,2.78125,-4.127604,-5.295974,8.121132,0.1384844,-0.108657,0.1917476,-32,615,-503
2444.398,2.785156,-4.13718,-5.329493,8.116344,0.1502023,-0.1097222,0.1917476,-6,622,-541
2444.402,2.789062,-4.10845,-5.161899,8.259996,0.1576591,-0.1107875,0.1949434,14,620,-506
2444.406,2.792969,-4.070143,-5.080496,8.288726,0.1683118,-0.112918,0.2024002,45,609,-493
2444.41,2.796875,-4.050989,-5.15711,8.317457,0.1821602,-0.1139833,0.201335,26,569,-477
2444.414,2.800781,-3.931279,-5.24809,8.398859,0.1885518,-0.1139833,0.205596,8,631,-466
2444.418,2.804688,-3.859453,-5.161899,8.33661,0.1949434,-0.1033307,0.2173139,17,630,-509
2444.422,2.808594,-3.873818,-5.142745,8.30788,0.1960087,-0.1022654,0.2269013,51,607,-496
2444.426,2.8125,-3.98874,-5.114015,8.422801,0.1960087,-0.09054748,0.2311624,-11,617,-515
2444.43,2.816406,-3.955221,-4.932055,8.504204,0.1885518,-0.0777643,0.2354234,-15,576,-495
2444.434,2.820312,-3.926491,-4.759673,8.657433,0.1778992,-0.0628506,0.2386192,4,635,-546
2444.438,2.824219,-3.821146,-4.55856,8.662222,0.1555286,-0.04687164,0.2343582,43,590,-511
2444.441,2.828125,-3.849876,-4.64954,8.681375,0.1320928,-0.01704423,0.2343582,3,605,-487
2444.445,2.832031,-3.821146,-4.865018,8.834604,0.1107875,0.01278317,0.2311624,52,572,-475
2444.449,2.835938,-3.830723,-4.750096,8.863335,0.08522115,0.05752428,0.2364887,-3,652,-478
2444.453,2.839844,-3.758897,-4.764461,8.983045,0.05645902,0.09693906,0.2396845,6,626,-483
2444.457,2.84375,-3.682282,-4.841076,9.078813,0.02663161,0.128897,0.237554,56,590,-501
2444.461,2.847656,-3.801992,-4.510676,8.872911,-0.01278317,0.1789644,0.2556635,-3,592,-491
2444.465,2.851562,-3.682282,-5.525817,8.973468,-0.01917476,0.2503371,0.2599245,8,579,-506
2444.469,2.855469,-3.490746,-5.104438,8.762778,-0.02343582,0.2918825,0.2545982,-16,650,-498
2444.473,2.859375,-3.648763,-5.066131,9.289502,-0.07882957,0.366451,0.2886867,5,627,-501
2444.477,2.863281,-3.62961,-3.687071,8.609549,-0.1107875,0.3973436,0.3227751,31,580,-496
2444.48,2.867188,-4.065354,-3.265691,8.633491,-0.2300971,0.4655206,0.4111921,27,603,-516
2444.484,2.871094,-4.027047,-6.258443,9.26556,-0.2620551,0.479369,0.3994742,4,550,-487
2444.488,2.875,-3.122039,-7.192182,9.270349,-0.1778992,0.551807,0.2524677,-10,644,-491
2444.492,2.878906,-2.734178,-4.525041,9.260772,-0.2119876,0.660464,0.3589941,15,637,-477
2444.496,2.882812,-2.96881,-2.777274,9.299079,-0.2769688,0.7435546,0.4719121,16,587,-540
2444.5,2.886719,-3.428497,-3.98874,9.303868,-0.3046656,0.8213189,0.386691,64,572,-487
2444.504,2.890625,-3.615245,-5.588067,9.418789,-0.3067962,0.9097358,0.2748382,10,617,-488
2444.508,2.894531,-3.399766,-6.359,9.490615,-0.2886867,1.009871,0.2695119,-34,646,-497
2444.512,2.898438,-2.844312,-6.38773,9.361328,-0.2631203,1.123854,0.3376888,27,599,-480
2444.516,2.902344,-2.700659,-5.592855,9.107543,-0.2641856,1.2911,0.3952131,39,614,-534
2444.52,2.90625,-3.122039,-5.142745,9.26556,-0.2609898,1.401888,0.4143879,2,585,-501
2444.523,2.910156,-3.471592,-5.281609,9.323021,-0.2652508,1.494566,0.4378237,-27,570,-490
2444.527,2.914062,-3.529053,-5.899313,9.418789,-0.2790993,1.611745,0.4751079,-20,579,-490
2444.531,2.917969,-3.404555,-5.841852,9.332598,-0.2524677,1.709749,0.5017395,26,615,-483
2444.535,2.921875,-3.337517,-5.305551,9.514557,-0.2503371,1.822667,0.5326322,60,598,-453
2444.539,2.925781,-3.442862,-4.936844,8.963891,-0.1789644,1.965413,0.556068,-4,576,-486
2444.543,2.929688,-3.859453,-5.444415,10.67335,-0.2588593,2.133725,0.5656554,26,575,-470
2444.547,2.933594,-3.466804,-6.162675,10.56801,-0.04900216,2.206163,0.519849,-5,606,-499
2444.551,2.9375,-2.451662,-2.901772,9.504981,-0.2950782,2.386192,0.5581986,44,599,-497
2444.555,2.941406,-2.911349,-4.338293,9.792285,-0.2705772,2.498045,0.6583334,37,598,-484
2444.559,2.945312,-3.816357,-6.052542,9.471462,-0.1235707,2.701511,0.6572682,49,566,-472
2444.562,2.949219,-4.151546,-6.119579,9.739612,-0.201335,2.874083,0.6402239,-20,632,-469
2444.566,2.953125,-4.410119,-5.731719,9.394847,-0.2822951,2.997654,0.7424893,-20,617,-501
2444.57,2.957031,-4.027047,-6.200982,9.064447,-0.2908172,3.128682,0.8532768,17,572,-482
2444.574,2.960938,-4.007894,-6.856994,8.944737,-0.3398194,3.258644,0.938498,45,602,-464
2444.578,2.964844,-3.940856,-7.872135,8.595184,-0.3281014,3.439739,1.036502,7,589,-442
2444.582,2.96875,-4.390966,-7.987057,8.604761,-0.2908172,3.631486,1.089766,-36,596,-501
2444.586,2.972656,-4.242525,-9.323021,9.591172,-0.144876,3.792341,1.23038,35,603,-479
2444.59,2.976562,-2.873042,-4.754884,8.226477,-0.350472,4.001133,1.409345,3,564,-489
2444.594,2.980469,-3.701436,-4.232949,8.173804,-0.4111921,4.184359,1.558482,32,552,-498
2444.598,2.984375,-4.146757,-6.363788,8.5473,-0.3483415,4.40913,1.6714,15,619,-482
2444.602,2.988281,-3.902549,-8.475474,9.658209,-0.4122573,4.592355,1.75236,-10,575,-476
2444.605,2.992188,-3.524265,-7.393295,9.868899,-0.4548679,4.893825,1.915345,29,603,-499
2444.609,2.996094,-2.954445,-6.655881,10.17536,-0.4218447,5.153749,2.048504,19,576,-452
2444.613,3,-2.691083,-7.331045,9.528923,-0.3771036,5.408348,2.135855,-8,538,-490
2444.617,3.003906,-2.336741,-8.341399,8.470685,-0.3600594,5.769472,2.224272,-10,595,-436
2444.621,3.007812,-2.461239,-8.33661,7.690176,-0.3462109,6.067746,2.412824,19,556,-494
2444.625,3.011719,-2.705448,-7.580042,7.675811,-0.4175837,6.410761,2.684466,27,593,-449
2444.629,3.015625,-3.280056,-6.708553,8.101978,-0.5965481,6.824084,3.054113,37,579,-463
2444.633,3.019531,-3.313575,-6.584055,9.150639,-0.8000136,7.127684,3.286341,-32,556,-462
2444.637,3.023438,-2.839523,-6.612785,9.849746,-0.9864349,7.413175,3.487676,-14,601,-435
2444.641,3.027344,-1.924938,-5.851429,9.864111,-1.229315,7.876565,3.833887,-25,569,-481
2444.645,3.03125,-1.225831,-5.15711,10.86489,-1.43065,8.299475,4.116182,-13,605,-496
2444.648,3.035156,-1.493982,-5.382165,11.315,-1.694836,8.768192,4.337757,-14,579,-434
2444.652,3.039062,-1.8579,-6.052542,12.07156,-1.925998,9.230516,4.539092,-53,558,-469
2444.656,3.042969,-3.145981,-6.938396,12.46421,-2.270079,9.853696,4.871454,-27,593,-477
2444.66,3.046875,-5.961562,-8.532935,11.63582,-2.435195,10.24891,5.128183,1,595,-504
2444.664,3.050781,-10.71645,-11.43471,7.881712,-2.43839,10.56316,5.447762,3,569,-495
2444.668,3.054688,-21.42332,-13.43147,12.22958,-2.304167,10.66649,5.777994,-11,595,-432
2444.672,3.058594,-34.17483,-12.83292,8.75799,-1.906823,10.21695,5.854693,-45,639,-399
2444.676,3.0625,-44.95353,-12.58392,6.670246,-1.835451,9.525595,5.831258,-2,605,-463
2444.68,3.066406,-49.65574,-11.45865,7.747637,-1.698032,8.148208,5.767342,13,610,-457
2444.684,3.070312,-46.98381,-8.681375,8.939949,-1.692705,7.22995,5.666142,41,575,-428
2444.688,3.074219,-42.57369,-6.196194,8.250419,-2.019741,6.456568,5.47972,-36,566,-418
2444.691,3.078125,-34.36637,-10.6111,11.35809,-2.407498,5.486112,5.282646,-16,648,-450
2444.695,3.082031,-30.51649,-20.71463,11.93749,-2.575809,5.075985,5.287973,-14,639,-436
2444.699,3.085938,-28.04089,-26.97308,11.69328,-2.49698,4.917261,5.193164,-56,584,-454
2444.703,3.089844,-24.28199,-26.24045,14.43704,-2.390453,4.970524,4.839496,-33,560,-450
2444.707,3.09375,-22.80717,-20.45127,16.05073,-2.835734,4.869324,4.338822,-98,576,-403
2444.711,3.097656,-20.96842,-15.70117,14.92066,-2.833603,4.666923,4.200338,-49,612,-432
2444.715,3.101562,-18.35395,-12.8425,14.30296,-3.078614,4.579572,4.179032,-89,578,-448
2444.719,3.105469,-14.48492,-14.77701,13.04361,-3.137204,4.4315,4.120443,-56,606,-460
2444.723,3.109375,-11.68849,-17.8368,11.89918,-3.269297,4.425108,3.915912,-76,584,-391
2444.727,3.113281,-9.801862,-19.89103,11.53048,-3.497263,4.422978,3.469566,-57,593,-401
2444.73,3.117188,-12.49294,-19.57499,13.46978,-3.631486,4.242948,2.633334,-73,633,-444
2444.734,3.121094,-17.20473,-20.46564,16.52957,-3.662379,3.832821,2.11668,-65,614,-461
2444.738,3.125,-21.19347,-22.71619,20.36987,-3.629356,3.050917,1.650095,-40,613,-430
2444.742,3.128906,-20.96842,-25.2684,24.16228,-3.433347,1.997371,1.100418,-77,602,-438
2444.746,3.132812,-19.41698,-28.86928,24.32509,-3.34493,0.5581986,0.08522115,-48,597,-420
2444.75,3.136719,-15.63414,-34.13653,20.17354,-2.117746,-0.2631203,-0.5731123,-101,629,-494
2444.754,3.140625,-9.509769,-30.12863,19.97243,-1.360343,-1.061003,-0.5667207,-80,634,-425
2444.758,3.144531,-3.035848,-30.91872,12.51689,-0.05113269,-1.726794,-0.5486112,-15,592,-467
2444.762,3.148438,2.236184,-29.98019,7.460332,1.038633,-1.563808,-0.8735168,-51,630,-403
2444.766,3.152344,3.821146,-25.21573,3.648763,2.130529,-1.405084,-1.021589,-96,631,-400
2444.77,3.15625,1.35033,-14.93982,2.667141,3.238404,-1.110006,-0.9150622,-63,617,-404
2444.773,3.160156,-1.580173,-10.97981,6.263232,3.511112,-1.091896,-1.015197,-58,666,-420
2444.777,3.164062,-2.691083,-8.954314,8.408436,3.578223,-1.395496,-1.293231,-41,636,-448
2444.781,3.167969,-2.834735,-3.672705,10.98939,2.911368,-1.756621,-1.666074,-68,608,-448
2444.785,3.171875,-3.835511,0.6655881,11.71722,2.333994,-2.049569,-1.876996,-80,628,-435
2444.789,3.175781,-4.908113,3.045425,12.15776,1.879126,-2.369148,-2.065548,-84,656,-456
2444.793,3.179688,-5.334281,1.776498,12.44027,1.407214,-2.713229,-2.23386,-34,633,-446
2444.797,3.183594,-5.003881,-3.236961,11.60709,0.7893609,-3.218164,-2.490588,-21,603,-418
2444.801,3.1875,-3.86903,-6.411672,10.11311,0.4601942,-3.519634,-2.728142,-45,587,-375
2444.805,3.191406,-2.767697,-8.145074,8.494627,0.205596,-3.731621,-2.981675,-78,628,-420
2444.809,3.195312,-2.312799,-8.432378,6.943185,-0.003195793,-3.865845,-3.247991,-70,607,-428
2444.812,3.199219,-2.743755,-8.269573,6.684611,-0.06711166,-3.894607,-3.400324,13,592,-432
2444.816,3.203125,-2.245761,-7.000646,6.895301,-0.1022654,-3.941478,-3.494067,-28,599,-437
2444.82,3.207031,0.06224924,-4.898537,6.282385,-0.07030745,-4.062919,-3.448261,-61,571,-424
2444.824,3.210938,1.149217,-4.616021,5.401319,0.06498113,-4.085289,-3.32256,-71,602,-479
2444.828,3.214844,1.197101,-5.291186,5.33907,0.273773,-4.062919,-3.217099,-1,652,-436
2444.832,3.21875,0.1388637,-5.78918,5.760449,0.4495416,-4.085289,-3.1404,-41,624,-431
2444.836,3.222656,-1.015142,-6.14831,6.0286,0.6029397,-4.200338,-3.057309,-10,580,-413
2444.84,3.226562,-1.900996,-6.052542,6.129156,0.6679208,-4.301538,-3.031743,-71,558,-442
2444.844,3.230469,-2.456451,-5.6982,6.320692,0.6956177,-4.430435,-3.053048,-19,599,-458
2444.848,3.234375,-2.528277,-4.458003,6.47871,0.6615292,-4.639227,-3.107376,-32,617,-449
2444.852,3.238281,-1.953669,-3.428497,6.373365,0.5677859,-4.781972,-3.128682,-22,574,-418
2444.855,3.242188,-1.268927,-2.60968,6.124368,0.4740427,-4.876781,-3.135073,-64,583,-431
2444.859,3.246094,-0.7757213,-1.810016,5.760449,0.3419499,-4.941762,-3.165966,-60,625,-481
2444.863,3.25,-0.7565677,-1.450886,5.655104,0.2194445,-4.970524,-3.196859,-28,596,-461
2444.867,3.253906,-1.01993,-1.35033,5.444415,0.1043959,-4.968393,-3.218164,-78,584,-444
2444.871,3.257812,-1.570596,-1.757344,5.626374,-0.007456851,-4.977981,-3.232012,10,593,-434
2444.875,3.261719,-2.173935,-2.322376,5.750872,-0.07350325,-5.003547,-3.2416,-23,560,-409
2444.879,3.265625,-2.580949,-3.122039,5.870582,-0.1118528,-5.03444,-3.258644,-83,591,-442
2444.883,3.269531,-3.055001,-3.787627,6.05733,-0.1320928,-5.065332,-3.289537,-71,626,-473
2444.887,3.273438,-3.433285,-4.410119,6.330269,-0.09480853,-5.110073,-3.317233,-36,561,-439
2444.891,3.277344,-3.529053,-4.730942,6.569689,-0.03834952,-5.143097,-3.334278,-34,553,-435
2444.895,3.28125,-3.548207,-5.09965,6.593631,0.04580637,-5.175055,-3.350257,-11,552,-424
2444.898,3.285156,-3.591302,-5.24809,6.74686,0.1629855,-5.193164,-3.368366,-21,584,-427
2444.902,3.289062,-3.687071,-5.272032,6.914454,0.2471413,-5.200621,-3.368366,-13,575,-500
2444.906,3.292969,-3.763685,-5.324704,7.053318,0.3334278,-5.203817,-3.366236,-9,543,-475
2444.91,3.296875,-3.878607,-5.080496,7.249643,0.4261058,-5.203817,-3.379019,28,515,-425
2444.914,3.300781,-4.065354,-4.936844,7.311892,0.4846953,-5.197425,-3.388606,-41,585,-446
2444.918,3.304688,-4.328717,-4.716577,7.589619,0.5230448,-5.183577,-3.389671,-50,619,-470
2444.922,3.308594,-4.616021,-4.376601,7.996634,0.5113269,-5.192099,-3.381149,45,585,-459
2444.926,3.3125,-4.76925,-4.175488,8.259996,0.4814995,-5.187838,-3.389671,3,572,-493
2444.93,3.316406,-4.884171,-3.964798,8.628703,0.4527374,-5.17825,-3.40565,-24,538,-477
2444.934,3.320312,-5.33907,-3.912126,9.054871,0.4090615,-5.177185,-3.410977,-46,602,-447
2444.938,3.324219,-6.157887,-4.357447,9.662998,0.3430151,-5.200621,-3.40352,-24,555,-471
2444.941,3.328125,-6.880936,-4.932055,10.19451,0.2908172,-5.232579,-3.40565,16,600,-486
2444.945,3.332031,-7.503428,-5.612009,10.68772,0.2482066,-5.27732,-3.417368,39,570,-458
2444.949,3.335938,-8.06846,-6.23929,11.1905,0.2077266,-5.336975,-3.448261,-14,512,-465
2444.953,3.339844,-8.394071,-6.631939,11.50174,0.1874865,-5.387042,-3.462109,-2,582,-447
2444.957,3.34375,-8.681375,-6.967127,11.69328,0.1757686,-5.431783,-3.465305,13,566,-493
2444.961,3.347656,-8.777143,-7.364564,12.07635,0.1661813,-5.460545,-3.471697,20,536,-528
2444.965,3.351562,-9.097966,-7.723695,12.40675,0.1800297,-5.469068,-3.488741,29,567,-460
2444.969,3.355469,-9.586383,-8.063671,12.78504,0.1906823,-5.469068,-3.494067,16,540,-461
2444.973,3.359375,-10.42435,-8.327033,13.19205,0.1970739,-5.466937,-3.496198,4,580,-474
2444.977,3.363281,-10.97502,-8.317457,13.41232,0.1842907,-5.476524,-3.50472,19,580,-476
2444.98,3.367188,-11.23359,-8.183381,13.56076,0.1320928,-5.462676,-3.518568,3,540,-483
2444.984,3.371094,-11.24796,-7.967903,13.86722,0.0628506,-5.428588,-3.540939,29,547,-469
2444.988,3.375,-11.56878,-8.135497,14.44661,-0.02556635,-5.344432,-3.550526,20,561,-486
2444.992,3.378906,-12.02847,-8.772355,14.82011,-0.07456851,-5.267733,-3.534547,-3,595,-489
2444.996,3.382812,-12.46421,-9.653421,15.20797,-0.1438107,-5.17825,-3.506851,-9,548,-515
2445,3.386719,-12.967,-10.53928,15.57668,-0.1736381,-4.963067,-3.467436,30,554,-517
2445.004,3.390625,-13.39316,-10.78827,15.47133,-0.2311624,-4.774515,-3.421629,22,546,-457
2445.008,3.394531,-14.29338,-10.80743,16.01721,-0.3036004,-4.524178,-3.353452,17,610,-497
2445.012,3.398438,-17.03235,-11.89439,17.53992,-0.4101268,-4.180098,-3.225621,23,586,-538
2445.016,3.402344,-20.3172,-13.61822,18.26776,-0.5081311,-3.997937,-3.139334,64,617,-534
2445.02,3.40625,-23.92765,-15.43781,18.91898,-0.6402239,-3.862649,-3.108442,33,601,-498
2445.023,3.410156,-26.77196,-16.69716,19.27811,-0.7669904,-3.755057,-3.144661,41,577,-474
2445.027,3.414062,-29.80781,-16.90306,18.77054,-0.9299759,-3.632552,-3.286341,36,613,-473
2445.031,3.417969,-31.97696,-16.21832,17.88947,-1.021589,-3.531352,-3.364105,29,623,-529
2445.035,3.421875,-34.36158,-15.71554,17.27656,-1.123854,-3.445065,-3.426956,35,581,-516
2445.039,3.425781,-38.65199,-16.41465,15.04995,-1.232511,-3.424825,-3.561179,44,573,-511
2445.043,3.429688,-41.68784,-16.40507,12.80898,-1.188835,-3.420564,-3.619769,12,626,-487
2445.047,3.433594,-43.53137,-16.09382,10.25676,-1.098288,-3.462109,-3.630421,45,634,-543
2445.051,3.4375,-43.22013,-14.2024,5.477933,-0.9331716,-3.530286,-3.658118,26,593,-525
2445.055,3.441406,-41.44842,-11.47301,1.810016,-0.8042746,-3.480219,-3.648531,72,613,-532
2445.059,3.445312,-39.38941,-7.781155,-1.867477,-0.6572682,-3.332147,-3.507916,98,594,-459
2445.062,3.449219,-38.72861,-4.659116,-5.793968,-0.4697816,-2.999785,-3.256513,29,588,-490
2445.066,3.453125,-39.27927,-2.39899,-7.852981,-0.3728426,-2.781405,-2.896454,25,574,-536
2445.07,3.457031,-39.03506,-0.8714894,-9.911995,-0.273773,-2.590723,-2.695119,71,618,-540
2445.074,3.460938,-38.76212,-0.1628057,-11.65497,-0.1715076,-2.419216,-2.527873,74,547,-489
2445.078,3.464844,-38.22104,0.1101333,-13.48414,0.01065264,-2.243447,-2.228533,48,598,-490
2445.082,3.46875,-37.30645,0.1053449,-14.94461,0.1544633,-2.143312,-2.003762,17,630,-526
2445.086,3.472656,-36.40144,0.5027823,-16.26621,0.294013,-2.017611,-1.807754,50,595,-526
2445.09,3.476562,-35.8412,2.499547,-17.11375,0.4548679,-1.778992,-1.500958,63,648,-561
2445.094,3.480469,-35.95612,4.659116,-17.176,0.5028048,-1.577657,-1.25062,72,587,-484
2445.098,3.484375,-36.1285,7.096414,-16.98925,0.4261058,-1.365669,-1.072721,47,583,-499
2445.102,3.488281,-35.56347,9.581595,-16.85039,0.1235707,-1.047155,-0.9704559,41,605,-483
2445.105,3.492188,-34.74944,10.04128,-16.60618,-0.1225054,-0.7712515,-0.9257148,4,669,-505
2445.109,3.496094,-33.82049,9.141062,-16.41943,-0.2790993,-0.4559332,-0.8575379,103,630,-525
2445.113,3.5,-32.92027,7.455544,-16.19917,-0.3281014,-0.09693906,-0.7659251,46,602,-523
2445.117,3.503906,-32.47974,5.171476,-15.27022,-0.2173139,0.42291,-0.6210492,18,609,-486
2445.121,3.507812,-31.99132,4.170699,-14.31254,-0.006391587,0.7904262,-0.4889564,45,604,-466
2445.125,3.511719,-31.03364,3.912126,-13.09628,0.2599245,1.148355,-0.3312972,63,679,-529
2445.129,3.515625,-28.39044,4.869806,-11.32936,0.4985438,1.607484,-0.1331581,74,599,-488
2445.133,3.519531,-25.65148,-21.47599,-6.258443,1.0887,2.043177,0.005326322,73,599,-499
2445.137,3.523438,-8.647856,-12.82334,-7.594408,3.428021,3.100985,0.9012137,34,585,-473
2445.141,3.527344,-5.358223,9.255984,5.889736,3.56331,4.675446,1.417867,35,637,-506
2445.145,3.53125,10.3238,8.848969,22.82153,3.055178,4.430435,0.4836301,100,596,-521
2445.148,3.535156,35.76937,9.394847,18.11932,1.741707,4.903412,-0.181095,66,594,-536
2445.152,3.539062,57.70026,13.52245,32.92506,0.5976133,7.277887,1.366734,77,577,-476
2445.156,3.542969,51.36999,11.15219,35.52038,1.185639,7.280017,4.427239,32,621,-466
2445.16,3.546875,19.37388,4.074931,23.61641,3.287406,6.755907,6.873086,45,594,-490
2445.164,3.550781,-37.91458,15.74427,24.51184,3.718838,6.729275,7.424893,56,597,-502
2445.168,3.554688,-106.791,41.40054,11.73159,1.890844,6.324475,6.277603,47,579,-491
2445.172,3.558594,-92.25338,23.22376,3.610456,0.3025351,3.910586,3.804059,18,548,-513
2445.176,3.5625,-45.03014,3.615245,-1.905785,0.09374327,3.679423,1.193096,49,559,-501
2445.18,3.566406,-9.299079,3.96001,21.95962,0.09054748,4.780907,1.095092,51,602,-535
2445.184,3.570312,-6.751649,0.7038953,37.29209,-0.1257012,4.465589,2.740925,48,595,-482
2445.188,3.574219,-11.32457,-4.884171,39.36068,-0.165116,3.82856,3.28208,52,581,-473
2445.191,3.578125,-17.39627,3.983952,31.39277,-1.523328,2.704706,2.384062,-3,571,-450
2445.195,3.582031,-24.1144,-2.394202,33.50925,-1.911084,1.908954,1.943042,18,549,-466
2445.199,3.585938,-34.24666,-18.54549,34.22751,0.3749731,0.588026,2.550243,27,598,-523
2445.203,3.589844,-35.78853,-54.76497,-10.53928,-0.2077266,-1.767274,2.755839,44,522,-514
2445.207,3.59375,-25.99145,-57.33634,-10.84573,-0.5635249,-0.5539375,0.5741775,44,580,-493
2445.211,3.597656,-14.02523,-38.00077,-11.96622,1.041829,0.04048005,-0.5475459,20,591,-482
2445.215,3.601562,2.887407,-19.88145,-6.143521,1.899366,0.406931,-0.2194445,5,587,-521
2445.219,3.605469,14.50407,0.7278373,10.817,2.29458,0.8202536,1.072721,49,583,-506
2445.223,3.609375,7.8865,4.975151,11.62145,2.172074,0.499609,1.479652,21,544,-477
2445.227,3.613281,-5.33907,4.831499,16.95574,1.984588,0.3366236,1.307079,50,572,-456
2445.23,3.617188,-17.63569,7.699753,20.64281,1.522263,-0.3611246,1.298557,8,557,-504
2445.234,3.621094,-16.50084,4.390966,10.17536,0.3930826,-0.5038701,1.475391,22,571,-482
2445.238,3.625,-13.38838,-5.425261,6.909666,0.2854909,-0.5326322,0.942759,60,582,-481
2445.242,3.628906,-8.403648,-13.11544,5.774814,0.773382,-0.3962784,-0.6061355,52,553,-497
2445.246,3.632812,-5.396531,-10.56322,6.574478,0.6977482,-0.169377,-0.5496764,62,558,-509
2445.25,3.636719,-0.8619126,-9.246407,8.633491,0.6114618,-0.1257012,0.1704423,36,588,-518
2445.254,3.640625,2.30801,-5.080496,9.193734,0.664725,-0.128897,0.5177185,-8,579,-516
2445.258,3.644531,-0.8475474,2.164358,9.179369,0.5816344,-0.07243798,0.5667207,63,589,-503
2445.262,3.648438,-6.588843,-0.7852981,9.591172,0.5635249,-0.03621899,0.5102617,28,546,-486
2445.266,3.652344,-10.42435,-5.152322,9.734824,0.5017395,-0.0958738,0.2258361,47,538,-469
2445.27,3.65625,-8.619126,-7.139509,8.858546,0.3440804,-0.1832255,-0.08948221,4,581,-470
2445.273,3.660156,-4.242525,-6.124368,8.451532,0.2588593,-0.1832255,-0.09693906,21,596,-530
2445.277,3.664062,-1.264138,-4.280833,8.370129,0.2119876,-0.1416802,-0.004261058,37,584,-512
2445.281,3.667969,-1.16837,-4.280833,8.231265,0.2620551,-0.0809601,0.05858954,24,588,-510
2445.285,3.671875,-3.275268,-5.358223,8.293515,0.2844256,-0.05006743,0.03834952,35,553,-480
2445.289,3.675781,-5.48751,-5.602432,8.408436,0.2790993,-0.04687164,0.06178534,37,593,-472
2445.293,3.679688,-5.932832,-5.707777,8.465897,0.2173139,-0.08415589,0.1054612,3,584,-507
2445.297,3.683594,-4.58729,-5.621585,8.451532,0.185356,-0.1054612,0.05006743,53,554,-518
2445.301,3.6875,-3.380613,-4.984728,8.394071,0.1789644,-0.09480853,-0.007456851,57,569,-474
2445.305,3.691406,-3.055001,-4.424485,8.508993,0.1683118,-0.06924219,0.00958738,4,550,-487
2445.309,3.695312,-3.687071,-4.367024,8.652645,0.1470065,-0.04261058,0.06711166,23,587,-523
2445.312,3.699219,-4.242525,-4.477157,8.78672,0.1246359,-0.03834952,0.05219796,64,587,-511
2445.316,3.703125,-4.429273,-4.419696,8.839393,0.09054748,-0.04474111,0.02024002,48,575,-480
2445.32,3.707031,-4.055778,-4.309563,8.753201,0.0330232,-0.05006743,0.007456851,66,572,-460
2445.324,3.710938,-3.849876,-4.290409,8.566454,0.00958738,-0.04048005,0,39,575,-495
2445.328,3.714844,-3.96001,-4.390966,8.461109,-0.005326322,-0.02876214,-0.02024002,34,599,-494
2445.332,3.71875,-4.290409,-4.836287,8.451532,-0.01917476,-0.02769688,-0.05858954,38,593,-514
2445.336,3.722656,-4.290409,-5.24809,8.408436,-0.02237055,-0.02876214,-0.08202536,47,599,-466
2445.34,3.726562,-4.050989,-5.434838,8.384494,-0.02876214,-0.03408846,-0.0958738,22,528,-480
2445.344,3.730469,-3.725378,-5.286397,8.298303,-0.03515373,-0.03089267,-0.08628642,18,571,-491
2445.348,3.734375,-3.65834,-5.166687,8.30788,-0.03621899,-0.01384844,-0.07456851,2,596,-502
2445.352,3.738281,-3.787627,-5.209783,8.250419,-0.03621899,-0.01065264,-0.07563377,56,587,-498
2445.355,3.742188,-4.132392,-5.324704,8.231265,-0.03834952,-0.005326322,-0.08735168,54,576,-453
2445.359,3.746094,-4.271256,-5.501875,8.135497,-0.04580637,-0.001065264,-0.09800433,20,542,-492
2445.363,3.75,-4.132392,-5.674258,8.135497,-0.05006743,-0.006391587,-0.09906959,-3,568,-481
2445.367,3.753906,-3.912126,-5.822698,8.049306,-0.04474111,-0.01597897,-0.09480853,17,577,-492
2445.371,3.757812,-3.65834,-6.014235,7.934384,-0.03515373,-0.0181095,-0.07563377,39,558,-487
2445.375,3.761719,-3.505111,-6.17704,7.929596,-0.01917476,-0.01704423,-0.05326322,60,609,-493
2445.379,3.765625,-3.500323,-6.14831,7.867347,-0.005326322,-0.0181095,-0.0181095,33,555,-456
2445.383,3.769531,-3.600879,-6.105214,7.896077,0.01704423,-0.01917476,0.02663161,19,587,-526
2445.387,3.773438,-3.711013,-6.038177,7.934384,0.03195793,-0.02237055,0.05219796,40,555,-519
2445.391,3.777344,-3.902549,-5.93762,7.867347,0.0479369,-0.02556635,0.07137272,49,553,-493
2445.395,3.78125,-4.122815,-5.81791,7.905654,0.05965481,-0.02556635,0.08628642,12,575,-501
2445.398,3.785156,-4.295198,-5.688623,8.010999,0.07669904,-0.03941478,0.08735168,-26,574,-494
2445.402,3.789062,-4.127604,-5.674258,8.202535,0.0777643,-0.05219796,0.08522115,2,586,-511
2445.406,3.792969,-3.931279,-5.463568,8.264784,0.0777643,-0.06178534,0.09267801,-2,606,-497
2445.41,3.796875,-3.639187,-5.09965,8.250419,0.07243798,-0.05645902,0.1107875,45,525,-446
2445.414,3.800781,-3.600879,-4.922479,8.341399,0.06924219,-0.05006743,0.1214401,38,560,-469
2445.418,3.804688,-3.902549,-4.960786,8.365341,0.0628506,-0.03834952,0.1214401,65,575,-498
2445.422,3.808594,-4.113238,-4.912902,8.523358,0.04687164,-0.02556635,0.1150486,68,569,-496
2445.426,3.8125,-4.242525,-4.745308,8.57603,0.02663161,-0.02343582,0.112918,12,588,-489
2445.43,3.816406,-4.151546,-4.510676,8.623914,0.001065264,-0.0181095,0.1107875,51,592,-496
2445.434,3.820312,-4.103662,-4.338293,8.619126,-0.02237055,-0.01704423,0.1043959,15,561,-502
2445.438,3.824219,-4.01747,-4.43885,8.614338,-0.05006743,-0.01917476,0.09800433,-14,586,-449
2445.441,3.828125,-3.98874,-4.702212,8.504204,-0.06711166,-0.01917476,0.1022654,38,586,-501
2445.445,3.832031,-3.916914,-5.003881,8.422801,-0.07882957,-0.01917476,0.1118528,49,595,-537
2445.449,3.835938,-3.878607,-5.085284,8.413225,-0.09800433,-0.007456851,0.1342233,46,599,-499
2445.453,3.839844,-3.907337,-4.932055,8.374917,-0.1065264,0,0.1459412,39,558,-450
2445.457,3.84375,-4.065354,-4.821922,8.274361,-0.1107875,0.003195793,0.1555286,26,571,-511
2445.461,3.847656,-4.189853,-5.075708,8.303091,-0.1097222,0.003195793,0.1619202,28,597,-483
2445.465,3.851562,-4.232949,-5.281609,8.250419,-0.1043959,-0.002130529,0.1608549,57,541,-493
2445.469,3.855469,-4.118027,-5.363012,8.183381,-0.09906959,-0.003195793,0.1608549,21,530,-485
2445.473,3.859375,-4.022259,-5.315128,8.135497,-0.09161274,-0.002130529,0.1747034,13,579,-474
2445.477,3.863281,-3.921702,-5.272032,8.039729,-0.07989483,0.007456851,0.1842907,41,575,-513
2445.48,3.867188,-4.031836,-5.214571,8.078036,-0.06711166,0.02024002,0.1906823,49,564,-499
2445.484,3.871094,-4.256891,-5.228936,8.06846,-0.05006743,0.02663161,0.1906823,15,572,-490
2445.488,3.875,-4.381389,-5.238513,8.12592,-0.04261058,0.02343582,0.1874865,42,496,-491
2445.492,3.878906,-4.256891,-5.324704,8.169016,-0.03728426,0.0149137,0.1917476,48,587,-440
2445.496,3.882812,-4.01747,-5.391742,8.312668,-0.03408846,0.01278317,0.1928129,43,552,-518
2445.5,3.886719,-3.792415,-5.300762,8.350975,-0.02343582,0.02343582,0.2130529,38,588,-533
2445.504,3.890625,-3.89776,-5.501875,8.322245,-0.02130529,0.03089267,0.2151834,29,579,-489
2445.508,3.894531,-3.969586,-4.625598,8.240842,-0.03195793,0.05113269,0.2258361,20,533,-513
2445.512,3.898438,-4.314351,-4.491522,8.604761,-0.02876214,0.09374327,0.241815,59,554,-480
2445.516,3.902344,-4.094085,-4.812345,8.671798,-0.03408846,0.06711166,0.1949434,8,590,-507
2445.52,3.90625,-3.916914,-4.965574,8.432378,-0.05645902,0.06711166,0.1917476,19,545,-498
2445.523,3.910156,-3.806781,-4.788403,8.566454,-0.05965481,0.1299623,0.221575,28,557,-514
2445.527,3.914062,-3.969586,-4.481946,8.662222,-0.09800433,0.1565939,0.2205097,-6,597,-479
2445.531,3.917969,-3.96001,-4.405331,8.714894,-0.128897,0.1778992,0.2151834,9,614,-491
2445.535,3.921875,-3.974375,-4.572925,8.719682,-0.1597897,0.2119876,0.2119876,61,592,-479
2445.539,3.925781,-3.974375,-4.333505,8.66701,-0.2183792,0.2620551,0.2300971,54,537,-513
2445.543,3.929688,-4.165911,-4.098873,8.69574,-0.2897519,0.3089267,0.2588593,4,529,-461
2445.547,3.933594,-4.185065,-4.410119,8.844181,-0.3483415,0.3408846,0.2695119,39,577,-500
2445.551,3.9375,-4.003105,-4.817134,8.777143,-0.42291,0.3739078,0.2684466,21,568,-496
2445.555,3.941406,-3.835511,-4.879383,8.724471,-0.4857606,0.4090615,0.3004046,41,599,-534
2445.559,3.945312,-3.720589,-5.386954,8.863335,-0.5145227,0.4495416,0.3217099,54,536,-505
2445.562,3.949219,-3.375824,-6.301539,8.959103,-0.5017395,0.5006743,0.3025351,61,581,-527
2445.566,3.953125,-3.213019,-5.904101,8.647856,-0.4804343,0.5699165,0.2812298,4,564,-469
2445.57,3.957031,-3.356671,-4.936844,8.63828,-0.479369,0.6476808,0.3110572,20,579,-514
2445.574,3.960938,-3.955221,-4.410119,8.657433,-0.4985438,0.7115966,0.3387541,25,573,-522
2445.578,3.964844,-4.180276,-4.927267,8.916007,-0.5241101,0.7605988,0.2822951,59,543,-480
2445.582,3.96875,-4.01747,-5.372589,8.872911,-0.5347627,0.7978831,0.2364887,10,584,-477
2445.586,3.972656,-3.615245,-5.544971,9.030929,-0.5699165,0.8692558,0.2428803,27,573,-444
2445.59,3.976562,-3.150769,-5.468357,9.078813,-0.6125271,0.9757822,0.2812298,13,567,-464
2445.594,3.980469,-2.973598,-5.57849,8.930372,-0.6178534,1.069525,0.2854909,80,525,-519
2445.598,3.984375,-3.093309,-6.014235,8.868123,-0.6103965,1.174987,0.2769688,51,553,-470
2445.602,3.988281,-3.20823,-6.617573,8.566454,-0.5667207,1.333711,0.2908172,-3,559,-470
2445.605,3.992188,-3.495534,-6.335058,7.76679,-0.5645902,1.451955,0.3281014,23,584,-493
2445.609,3.996094,-3.505111,-7.752425,9.725247,-0.5773733,1.579787,0.386691,22,546,-496
2445.613,4,-2.839523,-5.3678,8.729259,-0.6210492,1.717206,0.4239752,39,555,-491
2445.617,4.003906,-2.873042,-4.630386,8.738836,-0.7115966,1.800297,0.5219796,45,565,-470
2445.621,4.007812,-3.098097,-5.434838,8.614338,-0.6498113,1.937716,0.5603291,11,558,-441
2445.625,4.011719,-3.303998,-6.133945,9.121908,-0.6402239,2.119876,0.5123922,-3,553,-498
2445.629,4.015625,-3.548207,-5.688623,9.294291,-0.6625945,2.281796,0.5060006,40,593,-497
2445.633,4.019531,-3.433285,-5.564125,9.150639,-0.6753777,2.424542,0.5752428,26,583,-506
2445.637,4.023438,-3.385401,-6.258443,9.093178,-0.6466155,2.572614,0.6178534,38,545,-475
2445.641,4.027344,-3.62961,-7.082049,9.040505,-0.5954828,2.78034,0.6540724,27,596,-498
2445.645,4.03125,-3.916914,-7.173028,8.916007,-0.5741775,2.941195,0.7243798,13,587,-548
2445.648,4.035156,-3.854665,-6.83784,8.825027,-0.6125271,3.089267,0.8106662,22,557,-464
2445.652,4.039062,-3.98874,-6.349423,8.863335,-0.6391587,3.281014,0.9203885,29,568,-465
2445.656,4.042969,-3.830723,-6.349423,8.839393,-0.6625945,3.447196,1.00774,31,501,-449
2445.66,4.046875,-3.682282,-6.363788,8.542512,-0.7286409,3.598463,1.083374,34,566,-451
2445.664,4.050781,-3.576937,-6.770802,8.015787,-0.7659251,3.824299,1.193096,-3,589,-503
2445.668,4.054688,-3.543418,-7.594408,7.532158,-0.7595335,4.038417,1.298557,22,559,-512
2445.672,4.058594,-3.873818,-7.19697,7.244854,-0.7808388,4.274906,1.335842,49,537,-502
2445.676,4.0625,-4.43885,-8.279149,9.557653,-0.7680557,4.485829,1.465804,24,562,-468
2445.68,4.066406,-3.720589,-4.817134,8.183381,-0.9491506,4.696751,1.699097,24,593,-429
2445.684,4.070312,-4.390966,-4.410119,7.560889,-1.004544,4.830974,1.899366,7,569,-460
2445.688,4.074219,-4.237737,-5.45878,7.503428,-1.061003,5.038701,2.031459,63,555,-490
2445.691,4.078125,-3.955221,-6.914454,8.973468,-1.218663,5.318865,2.139051,33,540,-467
2445.695,4.082031,-2.920926,-6.397307,9.433155,-1.275122,5.596899,2.319081,9,551,-474
2445.699,4.085938,-2.06859,-4.616021,9.504981,-1.378452,5.985721,2.515089,8,590,-465
2445.703,4.089844,-2.786851,-3.548207,9.212888,-1.586179,6.480004,2.650378,7,596,-499
2445.707,4.09375,-3.260903,-5.046977,9.02614,-1.694836,6.838998,2.729207,-9,554,-455
2445.711,4.097656,-3.529053,-6.679823,8.2169,-1.842907,7.163903,2.882606,6,524,-433
2445.715,4.101562,-3.720589,-7.321469,7.934384,-2.078331,7.505853,3.137204,2,561,-440
2445.719,4.105469,-3.256114,-7.192182,8.149862,-2.437325,7.992679,3.502589,-21,566,-452
2445.723,4.109375,-2.667141,-6.74686,8.801085,-2.763296,8.392153,3.728426,1,572,-484
2445.727,4.113281,-2.169147,-7.402872,9.524134,-2.984871,8.832107,3.92763,8,569,-442
2445.73,4.117188,-1.302446,-10.64941,9.662998,-3.045591,9.478723,4.279167,-10,548,-429
2445.734,4.121094,-1.120486,-13.33091,10.28549,-3.048787,10.02946,4.541222,-25,593,-414
2445.738,4.125,-2.408567,-16.27099,10.88404,-2.887932,10.57595,4.746818,-17,583,-440
2445.742,4.128906,-7.374141,-19.25417,10.85052,-2.441586,11.07662,5.060006,-51,585,-470
2445.746,4.132812,-14.16889,-19.05306,7.718906,-2.173139,11.23747,5.296495,-11,529,-386
2445.75,4.136719,-24.21496,-15.92144,8.030152,-2.21575,11.12988,5.333779,-31,576,-421
2445.754,4.140625,-40.31357,-10.7356,4.831499,-2.151834,10.22015,5.164402,-32,601,-412
2445.758,4.144531,-47.1945,-10.60152,7.038953,-2.110289,9.274192,5.254949,-6,593,-440
2445.762,4.148438,-46.88805,-12.76109,3.926491,-1.983522,8.153534,5.399825,-10,570,-429
2445.766,4.152344,-42.92325,-14.43704,3.816357,-2.132659,7.253386,5.111139,-4,620,-400
2445.77,4.15625,-34.1892,-11.22402,5.114015,-2.522546,6.508766,4.758536,-79,579,-369
2445.773,4.160156,-35.20434,-10.81221,9.77792,-2.890062,6.142315,4.7351,-48,597,-418
2445.777,4.164062,-37.08618,-17.31487,12.61265,-2.836799,5.569202,5.084507,-17,592,-436
2445.781,4.167969,-31.15335,-26.87252,14.19283,-3.10205,4.926848,5.055745,-49,586,-421
2445.785,4.171875,-25.01462,-27.11673,14.51365,-3.249057,4.649879,4.583833,-45,571,-394
2445.789,4.175781,-20.80082,-21.83512,12.83771,-3.424825,4.656271,4.256797,-64,604,-388
2445.793,4.179688,-19.67555,-16.85039,14.06354,-3.36517,4.676511,4.457066,-52,595,-439
2445.797,4.183594,-19.39303,-18.50718,14.93024,-3.281014,4.524178,4.707404,-26,613,-467
2445.801,4.1875,-18.03313,-21.98356,15.3612,-3.238404,4.238687,4.580637,-93,629,-441
2445.805,4.191406,-15.21755,-24.48311,14.63815,-3.139334,3.932956,4.140683,-49,597,-418
2445.809,4.195312,-14.47534,-26.18778,14.48492,-2.811233,3.38328,3.354518,-45,629,-362
2445.812,4.199219,-15.28458,-27.95949,13.68526,-2.465022,2.957174,2.673814,-69,631,-406
2445.816,4.203125,-17.09939,-29.87006,14.79617,-2.098571,2.39578,1.887649,-40,641,-429
2445.82,4.207031,-17.43936,-29.18532,16.94137,-1.621332,1.168595,0.8490158,-38,593,-380
2445.824,4.210938,-15.32768,-28.83098,19.2829,-1.340103,0.3675162,0.07243798,-57,584,-423
2445.828,4.214844,-13.69005,-25.90526,22.61084,-0.9651296,-0.3771036,-0.5933523,-122,603,-392
2445.832,4.21875,-11.44428,-15.50485,23.13278,-1.21014,-1.379517,-0.8032094,-55,619,-410
2445.836,4.222656,-13.2974,-17.70752,19.08179,-0.8362326,-2.160356,-0.741424,-26,611,-434
2445.84,4.226562,-5.904101,-20.11129,11.86566,0.01171791,-2.752643,-0.6295713,-35,590,-399
2445.844,4.230469,4.003105,-24.24847,3.77805,0.9171927,-2.931608,-0.5752428,-98,578,-409
2445.848,4.234375,7.671022,-24.3203,1.254562,1.679922,-2.500176,-0.628506,-78,601,-411
2445.852,4.238281,5.468357,-18.23424,3.677494,2.004828,-2.110289,-0.8490158,-42,583,-408
2445.855,4.242188,-0.5410896,-11.15219,8.2169,2.133725,-2.108158,-1.017328,-35,575,-439
2445.859,4.246094,-6.215348,-7.144298,13.14896,2.206163,-2.640791,-1.02798,-22,573,-445
2445.863,4.25,-8.106767,-7.522582,14.95897,2.069809,-3.270362,-1.081243,-86,617,-385
2445.867,4.253906,-8.274361,-8.154651,14.9877,1.887649,-3.902064,-1.28897,-52,593,-423
2445.871,4.257812,-7.455544,-8.30788,13.51766,1.544633,-4.539092,-1.719337,-33,600,-431
2445.875,4.261719,-6.909666,-8.283938,12.11945,1.277252,-4.876781,-2.045308,-65,618,-424
2445.879,4.265625,-6.435614,-8.432378,10.62547,1.031176,-5.140966,-2.321211,-45,592,-418
2445.883,4.269531,-6.856994,-9.351752,8.45632,0.7755125,-5.399825,-2.614159,-57,617,-388
2445.887,4.273438,-7.297527,-9.471462,7.163451,0.608266,-5.53831,-2.843191,-99,614,-441
2445.891,4.277344,-5.00867,-7.503428,6.205771,0.4452805,-5.74071,-3.022155,-34,572,-424
2445.895,4.28125,0.2059013,-3.806781,3.888183,0.2886867,-5.978264,-2.974218,-50,586,-404
2445.898,4.285156,3.011906,-2.504335,2.705448,0.2972088,-5.934588,-2.795254,-49,590,-415
2445.902,4.289062,3.77805,-2.614468,2.786851,0.3376888,-5.798234,-2.626942,-16,590,-438
2445.906,4.292969,2.734178,-3.078943,3.380613,0.3632552,-5.710883,-2.530003,-21,643,-449
2445.91,4.296875,0.8044518,-3.524265,3.552995,0.3291667,-5.697034,-2.462891,-87,565,-419
2445.914,4.300781,-0.2633622,-3.720589,3.562572,0.2716424,-5.728992,-2.443717,-31,576,-392
2445.918,4.304688,-0.2394202,-3.782839,3.730166,0.2247708,-5.772668,-2.409628,-31,574,-449
2445.922,4.308594,0.8044518,-3.969586,3.979163,0.1523328,-5.800365,-2.344647,-41,574,-419
2445.926,4.3125,1.508347,-4.343082,3.816357,0.1257012,-5.730057,-2.303102,-47,611,-479
2445.93,4.316406,1.58975,-4.721366,3.96001,0.09800433,-5.609683,-2.290319,-17,565,-452
2445.934,4.320312,0.9624691,-5.147534,4.113238,0.07137272,-5.490373,-2.326538,-18,586,-447
2445.938,4.324219,0.2585738,-5.032612,4.381389,0.08522115,-5.426457,-2.373409,-9,566,-427
2445.941,4.328125,-0.4357447,-4.922479,4.539406,0.1161138,-5.37639,-2.404302,-81,577,-448
2445.945,4.332031,-1.16837,-5.152322,4.659116,0.1427454,-5.340171,-2.427738,-28,596,-493
2445.949,4.335938,-1.426944,-5.770026,4.55856,0.2162487,-5.316735,-2.457565,-38,551,-472
2445.953,4.339844,-1.441309,-6.119579,4.625598,0.2705772,-5.287973,-2.500176,-22,582,-462
2445.957,4.34375,-1.613692,-6.330269,4.836287,0.3451457,-5.262406,-2.561961,-11,626,-464
2445.961,4.347656,-1.953669,-6.411672,5.224148,0.4580637,-5.2166,-2.643986,-58,571,-469
2445.965,4.351562,-2.346318,-6.47871,5.612009,0.5294364,-5.184642,-2.705772,9,608,-470
2445.969,4.355469,-2.829946,-6.593631,6.110003,0.5741775,-5.184642,-2.782471,-21,549,-429
2445.973,4.359375,-3.639187,-6.828263,6.665457,0.6317018,-5.182511,-2.925216,-64,533,-431
2445.977,4.363281,-4.194641,-6.842628,6.938396,0.6679208,-5.194229,-3.040265,-66,606,-448
2445.98,4.367188,-4.673482,-7.07726,7.37893,0.6838998,-5.21873,-3.146791,-49,570,-454
2445.984,4.371094,-5.252878,-7.177817,7.666234,0.680704,-5.268798,-3.290602,-45,566,-483
2445.988,4.375,-5.544971,-7.067683,7.967903,0.6540724,-5.318865,-3.410977,-28,556,-446
2445.992,4.378906,-5.861006,-6.909666,8.12592,0.6199839,-5.364672,-3.519634,-40,510,-457
2445.996,4.382812,-5.995081,-6.847417,8.33661,0.5837649,-5.412609,-3.608051,-42,547,-441
2446,4.386719,-5.966351,-6.636727,8.475474,0.5241101,-5.466937,-3.714577,-33,586,-504
2446.004,4.390625,-5.84664,-6.435614,8.552088,0.4538026,-5.491438,-3.799798,-8,576,-521
2446.008,4.394531,-5.813122,-6.330269,8.777143,0.3760383,-5.490373,-3.874367,-3,529,-456
2446.012,4.398438,-6.0286,-6.181829,8.8777,0.2886867,-5.487177,-3.954262,-11,555,-438
2446.016,4.402344,-6.402095,-6.196194,9.136274,0.2087918,-5.47972,-3.992611,-1,590,-479
2446.02,4.40625,-6.799533,-6.291962,9.23683,0.1278317,-5.473329,-4.027765,20,599,-461
2446.023,4.410156,-7.201759,-6.019023,9.203311,-0.002130529,-5.440305,-4.077832,-5,538,-533
2446.027,4.414062,-7.340622,-5.808333,9.351752,-0.1171791,-5.395564,-4.104464,12,542,-483
2446.031,4.417969,-7.603984,-5.774814,9.524134,-0.2183792,-5.31567,-4.102333,0,582,-481
2446.035,4.421875,-8.293515,-6.114791,10.04607,-0.3163835,-5.231514,-4.070375,-20,565,-513
2446.039,4.425781,-9.212888,-7.134721,10.4483,-0.370712,-5.113269,-4.001133,8,571,-535
2446.043,4.429688,-10.03649,-8.121132,10.86968,-0.3962784,-5.023787,-3.959588,-2,547,-476
2446.047,4.433594,-10.74039,-8.781932,11.33415,-0.4250405,-4.93324,-3.938283,-6,539,-485
2446.051,4.4375,-11.07558,-9.581595,11.91355,-0.4580637,-4.801147,-3.914847,11,544,-479
2446.055,4.441406,-11.31979,-10.23282,12.36845,-0.4601942,-4.667989,-3.874367,11,572,-511
2446.059,4.445312,-11.73159,-11.02769,12.94784,-0.4783037,-4.51033,-3.814712,42,564,-517
2446.062,4.449219,-12.35887,-11.94707,13.96777,-0.4090615,-4.279167,-3.761449,29,555,-468
2446.066,4.453125,-13.51766,-12.80898,14.5759,-0.3856257,-4.088485,-3.734817,0,531,-465
2446.07,4.457031,-15.13614,-14.03002,15.38993,-0.3568636,-3.903129,-3.697533,5,601,-471
2446.074,4.460938,-18.09059,-16.36676,16.38113,-0.2759035,-3.697533,-3.642139,-14,574,-495
2446.078,4.464844,-20.91096,-17.95172,17.46331,-0.2002697,-3.555853,-3.616573,56,560,-508
2446.082,4.46875,-24.41128,-18.7035,18.48803,-0.1384844,-3.50472,-3.625095,22,558,-485
2446.086,4.472656,-27.8302,-18.56464,18.84716,-0.1012001,-3.540939,-3.703924,18,608,-486
2446.09,4.476562,-30.35848,-16.90306,18.20551,-0.1043959,-3.662379,-3.908455,-13,603,-487
2446.094,4.480469,-31.08153,-15.1553,16.46253,-0.1842907,-3.74547,-4.035222,37,613,-495
2446.098,4.484375,-31.11504,-14.56632,14.60942,-0.2759035,-3.811516,-4.057592,25,528,-509
2446.102,4.488281,-31.26827,-13.67089,11.53048,-0.3813647,-3.80832,-4.003264,69,542,-495
2446.105,4.492188,-31.85246,-12.1817,9.557653,-0.4676511,-3.712447,-3.935087,19,561,-486
2446.109,4.496094,-33.04956,-11.37246,8.073248,-0.5283712,-3.596333,-3.809386,68,573,-535
2446.113,4.5,-35.1373,-11.42992,5.741296,-0.4974785,-3.470632,-3.599529,43,585,-528
2446.117,4.503906,-35.55868,-10.55843,3.557784,-0.519849,-3.406716,-3.481284,52,525,-503
2446.121,4.507812,-34.71592,-8.705317,0.9959879,-0.5763081,-3.300189,-3.379019,65,607,-505
2446.125,4.511719,-32.69043,-5.679046,-1.843535,-0.608266,-3.033873,-3.146791,9,599,-488
2446.129,4.515625,-32.04878,-4.103662,-3.32794,-0.5837649,-2.732403,-2.892193,24,582,-507
2446.133,4.519531,-32.81972,-3.275268,-3.830723,-0.5400891,-2.41815,-2.649313,61,622,-524
2446.137,4.523438,-34.33285,-2.513912,-3.86903,-0.5102617,-2.158226,-2.484197,77,582,-525
2446.141,4.527344,-36.36792,-1.651999,-3.964798,-0.4878911,-1.930259,-2.368083,28,606,-546
2446.145,4.53125,-36.9952,-1.115698,-4.687847,-0.4474111,-1.824798,-2.310559,31,655,-485
2446.148,4.535156,-36.54988,-0.521936,-5.60722,-0.3568636,-1.734251,-2.249838,72,614,-508
2446.152,4.539062,-35.1373,0.4501099,-7.211335,-0.1576591,-1.598962,-2.142247,73,595,-533
2446.156,4.542969,-34.11737,1.335965,-8.255207,0.02769688,-1.455151,-2.038916,58,628,-496
2446.16,4.546875,-33.46615,2.078167,-8.892065,0.2482066,-1.277252,-1.911084,45,630,-491
2446.164,4.550781,-33.72472,2.633622,-9.179369,0.5699165,-1.043959,-1.719337,35,607,-514
2446.168,4.554688,-34.38074,3.165135,-9.423578,0.7946873,-0.8937569,-1.578722,34,620,-541
2446.172,4.558594,-34.81648,4.089296,-9.964667,0.9640643,-0.7552725,-1.455151,63,584,-569
2446.176,4.5625,-34.29933,5.123592,-10.87925,1.056742,-0.6295713,-1.335842,54,624,-518
2446.18,4.566406,-33.37038,6.59842,-12.39718,1.091896,-0.4239752,-1.137702,39,608,-509
2446.184,4.570312,-32.45101,7.632715,-13.1729,1.081243,-0.2173139,-0.9267801,76,627,-508
2446.188,4.574219,-31.83809,7.991845,-13.3788,1.040763,0.0149137,-0.6764429,44,597,-544
2446.191,4.578125,-31.19166,7.259219,-12.60787,0.9821738,0.3249057,-0.3557983,71,622,-563
2446.195,4.582031,-30.62663,6.526594,-11.54005,0.9203885,0.556068,-0.185356,81,616,-513
2446.199,4.585938,-29.68331,5.999869,-10.29986,0.8362326,0.7744472,-0.07882957,38,604,-483
2446.203,4.589844,-27.63866,5.310339,-8.805874,0.7254451,1.057808,0.0149137,36,630,-546
2446.207,4.59375,-25.95315,4.419696,-7.64708,0.6711166,1.285774,0.07669904,82,627,-477
2446.211,4.597656,-24.21496,4.338293,-6.670246,0.6348976,1.53185,0.1246359,30,589,-470
2446.215,4.601562,-19.34036,-22.29481,-2.935291,1.52972,2.139051,0.4048005,28,606,-502
2446.219,4.605469,-2.892196,-1.838747,-0.07182605,2.586462,3.104181,1.243164,10,625,-505
2446.223,4.609375,-0.4070143,3.533842,6.263232,2.318015,3.713512,1.168595,17,606,-521
2446.227,4.613281,15.02122,5.329493,14.93982,1.666074,3.86691,0.4623248,39,612,-529
2446.23,4.617188,43.45955,-3.5099,24.33467,0.4601942,4.67225,0.7297061,51,583,-503
2446.234,4.621094,56.81919,-5.233725,29.98019,0.829841,6.4065,2.374474,23,603,-502
2446.238,4.625,47.33816,-2.207454,30.10948,2.124137,7.234211,4.696751,44,641,-509
2446.242,4.628906,-13.02446,15.10741,20.20706,3.242665,6.996657,6.098639,60,608,-512
2446.246,4.632812,-78.29518,33.56192,19.08179,1.986718,6.304235,5.92074,56,606,-505
2446.25,4.636719,-107.1214,35.22349,19.51274,0.3355583,4.931109,4.646683,55,590,-523
2446.254,4.640625,-66.44388,0.8379706,12.48337,-1.102549,3.038134,1.124919,29,564,-499
2446.258,4.644531,-27.94033,-4.596867,10.28549,-0.7989483,2.85917,-0.3174488,28,572,-511
2446.262,4.648438,-5.391742,0.2346318,21.26051,-0.9267801,3.331082,0.7052051,43,595,-550
2446.266,4.652344,1.489193,0.7086837,28.64423,-0.7094661,3.12229,2.245577,44,576,-533
2446.27,4.65625,-1.776498,-0.2059013,24.31072,-0.6945524,2.49911,2.556635,28,549,-505
2446.273,4.660156,-6.454768,0.7230489,17.29092,-1.38804,2.037851,2.25623,43,561,-550
2446.277,4.664062,-10.64462,-3.064578,10.19451,-1.975,1.695901,2.184857,15,624,-552
2446.281,4.667969,-9.572018,-11.45865,4.089296,-2.181662,1.598962,1.976066,18,601,-521
2446.285,4.671875,-11.54005,-25.32108,11.15219,-0.9406285,1.680987,1.784318,38,587,-525
2446.289,4.675781,-23.12799,-39.33673,19.59893,2.011219,0.9725864,2.434129,25,554,-506
2446.293,4.679688,-34.4382,-63.45592,-6.641515,1.3678,-1.032241,2.788862,36,567,-522
2446.297,4.683594,-29.10392,-51.63335,-1.958457,0.978978,-0.2748382,1.20801,34,592,-507
2446.301,4.6875,-14.56153,-13.40274,-1.383849,2.103897,0.2769688,-0.1267665,41,575,-539
2446.305,4.691406,9.217676,17.31965,9.184158,2.224272,0.4324974,0.6125271,54,551,-497
2446.309,4.695312,15.6485,16.97489,18.01876,2.35743,0.3834952,1.528654,-11,561,-481
2446.312,4.699219,2.743755,8.489839,18.07143,1.933455,0.0628506,1.512675,27,575,-462
2446.316,4.703125,-17.12812,1.747767,19.12967,1.426389,-0.09906959,1.00774,25,613,-522
2446.32,4.707031,-23.04659,-0.9481039,14.76265,0.7020093,-0.624245,0.8372978,36,551,-519
2446.324,4.710938,-11.25275,-6.775591,7.580042,0.2300971,-0.9811085,0.6796387,29,588,-467
2446.328,4.714844,-0.4836287,-13.85764,0.7422025,0.390952,-0.8692558,0.2034655,-19,542,-521
2446.332,4.71875,1.958457,-17.1377,2.72939,0.9171927,-0.2247708,-0.03408846,37,589,-537
2446.336,4.722656,-1.70946,-10.11311,8.389283,1.200553,0.1906823,0.3536678,21,582,-515
2446.34,4.726562,-6.17704,1.608904,11.97101,1.013066,0.3398194,0.7424893,46,556,-560
2446.344,4.730469,-7.383718,6.402095,14.37479,0.6317018,-0.02024002,0.5741775,79,560,-511
2446.348,4.734375,-5.837064,2.418144,11.98059,0.370712,-0.3206446,0.1342233,40,550,-491
2446.352,4.738281,-5.60722,-3.969586,8.408436,0.185356,-0.309992,-0.04900216,31,587,-500
2446.355,4.742188,-5.932832,-10.65899,6.689399,0.1842907,-0.1544633,-0.02450108,18,585,-543
2446.359,4.746094,-4.683058,-9.916783,6.684611,0.2897519,-0.1022654,-0.01065264,8,586,-501
2446.363,4.75,-3.064578,-6.962338,7.402872,0.3227751,-0.04048005,0.03834952,31,575,-501
2446.367,4.753906,-2.585738,-4.668693,8.552088,0.3131877,-0.006391587,0.07563377,16,590,-481
2446.371,4.757812,-3.500323,-2.916138,9.294291,0.2972088,-0.04048005,0.1012001,3,592,-490
2446.375,4.761719,-4.419696,-3.347094,8.848969,0.2503371,-0.06178534,0.1331581,47,595,-540
2446.379,4.765625,-5.00867,-5.305551,8.403648,0.205596,-0.08202536,0.09693906,60,574,-530
2446.383,4.769531,-4.912902,-6.641515,7.929596,0.205596,-0.0809601,0.001065264,-10,563,-503
2446.387,4.773438,-4.218583,-6.105214,8.087613,0.2002697,-0.05858954,0.01065264,8,596,-511
2446.391,4.777344,-3.385401,-5.228936,8.422801,0.1885518,-0.04367584,0.05965481,31,579,-512
2446.395,4.78125,-3.045425,-3.983952,8.75799,0.1597897,-0.02663161,0.07243798,60,549,-540
2446.398,4.785156,-3.543418,-3.701436,8.810662,0.1331581,-0.02024002,0.06391587,48,566,-484
2446.402,4.789062,-4.232949,-4.170699,8.753201,0.1054612,-0.01704423,0.04580637,11,540,-479
2446.406,4.792969,-4.501099,-4.702212,8.609549,0.07989483,-0.0181095,0.02024002,20,584,-500
2446.41,4.796875,-4.213795,-4.979939,8.350975,0.04580637,-0.01597897,-0.01704423,54,594,-512
2446.414,4.800781,-3.873818,-4.984728,8.255207,0.03408846,-0.002130529,-0.02876214,47,553,-516
2446.418,4.804688,-3.797204,-4.903325,8.173804,0.0330232,0.01704423,-0.0298274,29,550,-477
2446.422,4.808594,-4.065354,-4.975151,8.221689,0.03089267,0.03408846,-0.0298274,45,563,-509
2446.426,4.8125,-4.156334,-5.224148,8.350975,0.02663161,0.04261058,-0.0330232,50,604,-492
2446.43,4.816406,-4.122815,-5.430049,8.30788,0.02024002,0.0479369,-0.04261058,39,606,-527
2446.434,4.820312,-3.945644,-5.291186,8.33661,0.002130529,0.06178534,-0.03621899,41,556,-533
2446.438,4.824219,-3.926491,-5.238513,8.317457,-0.006391587,0.06817692,-0.02876214,56,544,-488
2446.441,4.828125,-3.974375,-5.27682,8.274361,-0.005326322,0.07882957,-0.0298274,26,578,-507
2446.445,4.832031,-4.012682,-5.501875,8.111555,-0.005326322,0.08628642,-0.03728426,17,600,-551
2446.449,4.835938,-3.96001,-5.635951,8.015787,-0.002130529,0.09374327,-0.03089267,15,564,-567
2446.453,4.839844,-3.964798,-5.755661,8.073248,0.007456851,0.09267801,-0.01917476,54,605,-509
2446.457,4.84375,-3.921702,-5.770026,8.063671,0.0149137,0.09161274,-0.002130529,15,534,-500
2446.461,4.847656,-3.792415,-5.664681,8.106767,0.02556635,0.07882957,0.01917476,10,582,-498
2446.465,4.851562,-3.801992,-5.693412,8.030152,0.04048005,0.0660464,0.0298274,-21,575,-528
2446.469,4.855469,-3.792415,-5.837064,8.015787,0.05432849,0.05219796,0.04474111,27,602,-507
2446.473,4.859375,-3.811569,-5.837064,8.010999,0.08309063,0.0298274,0.07563377,23,580,-504
2446.477,4.863281,-3.758897,-5.770026,7.97748,0.09906959,0.0149137,0.09693906,-8,584,-510
2446.48,4.867188,-3.758897,-5.573701,7.982268,0.1182444,0.003195793,0.1150486,17,598,-548
2446.484,4.871094,-3.936068,-5.415684,8.121132,0.1395496,-0.01597897,0.1352886,62,615,-507
2446.488,4.875,-3.979163,-5.305551,8.135497,0.1523328,-0.0330232,0.1416802,43,568,-512
2446.492,4.878906,-4.132392,-5.224148,8.183381,0.1619202,-0.04154531,0.1406149,48,551,-472
2446.496,4.882812,-4.055778,-5.190629,8.2169,0.169377,-0.05645902,0.1363538,-7,563,-501
2446.5,4.886719,-4.050989,-5.291186,8.264784,0.1800297,-0.06498113,0.1342233,29,567,-522
2446.504,4.890625,-3.912126,-5.181052,8.327033,0.181095,-0.0628506,0.1384844,35,562,-533
2446.508,4.894531,-3.763685,-4.994305,8.408436,0.1821602,-0.05645902,0.1438107,59,564,-549
2446.512,4.898438,-3.940856,-4.64954,8.485051,0.1704423,-0.05539375,0.1416802,57,579,-513
2446.516,4.902344,-4.07972,-4.568137,8.499416,0.1587244,-0.05539375,0.1384844,18,598,-506
2446.52,4.90625,-4.156334,-4.817134,8.537723,0.144876,-0.06391587,0.1320928,13,575,-542
2446.523,4.910156,-4.118027,-4.989516,8.413225,0.1267665,-0.07137272,0.1267665,17,550,-499
2446.527,4.914062,-4.060566,-5.042189,8.370129,0.1150486,-0.07350325,0.1278317,38,553,-519
2446.531,4.917969,-4.046201,-5.023035,8.360552,0.1097222,-0.07882957,0.1342233,35,591,-482
2446.535,4.921875,-4.132392,-5.166687,8.288726,0.1075917,-0.08841695,0.1384844,21,591,-482
2446.539,4.925781,-4.194641,-5.238513,8.255207,0.1054612,-0.09480853,0.1384844,34,583,-551
2446.543,4.929688,-4.170699,-5.396531,8.2169,0.1075917,-0.1001349,0.1406149,13,577,-536
2446.547,4.933594,-4.13718,-5.386954,8.178593,0.1161138,-0.1054612,0.1438107,2,562,-480
2446.551,4.9375,-4.10845,-5.434838,8.169016,0.1214401,-0.1097222,0.144876,-26,555,-510
2446.555,4.941406,-4.10845,-5.358223,8.154651,0.1246359,-0.1065264,0.1480718,41,569,-486
2446.559,4.945312,-4.170699,-5.243302,8.18817,0.1278317,-0.1012001,0.1502023,-11,578,-514
2446.562,4.949219,-4.271256,-5.061342,8.288726,0.128897,-0.09906959,0.144876,58,576,-541
2446.566,4.953125,-4.237737,-5.018247,8.341399,0.1235707,-0.1001349,0.1416802,22,552,-468
2446.57,4.957031,-4.266467,-4.999093,8.279149,0.1171791,-0.1012001,0.1352886,7,577,-512
2446.574,4.960938,-4.194641,-5.013458,8.30788,0.1150486,-0.09906959,0.1310275,4,598,-542
2446.578,4.964844,-4.175488,-5.080496,8.259996,0.1139833,-0.09267801,0.1299623,5,565,-522
2446.582,4.96875,-4.218583,-5.171476,8.370129,0.112918,-0.08309063,0.1257012,47,554,-521
2446.586,4.972656,-4.189853,-5.0374,8.403648,0.1118528,-0.07669904,0.1310275,-7,541,-476
2446.59,4.976562,-4.094085,-4.91769,8.398859,0.1097222,-0.07669904,0.1363538,22,555,-525
2446.594,4.980469,-3.974375,-4.807557,8.418013,0.1065264,-0.06817692,0.1374191,-22,598,-508
2446.598,4.984375,-4.022259,-4.759673,8.485051,0.1022654,-0.05752428,0.1416802,13,563,-529
2446.602,4.988281,-4.074931,-4.745308,8.585607,0.09267801,-0.04367584,0.1416802,78,548,-465
2446.605,4.992188,-3.98874,-4.707,8.762778,0.0777643,-0.03089267,0.1438107,40,510,-488
2446.609,4.996094,-3.845088,-4.46758,8.686164,0.05965481,-0.01278317,0.1438107,6,596,-497
2446.613,5,-3.806781,-4.563348,8.796297,0.03408846,0.02024002,0.144876,46,585,-537
2446.617,5.003906,-3.801992,-4.620809,8.872911,0.008522115,0.05113269,0.1438107,40,627,-546
2446.621,5.007812,-3.792415,-4.367024,8.8777,-0.01917476,0.08628642,0.144876,31,555,-485
2446.625,5.011719,-4.027047,-4.189853,9.006987,-0.06711166,0.1533981,0.1480718,14,556,-513
2446.629,5.015625,-3.907337,-4.697424,9.160216,-0.08628642,0.1736381,0.1320928,33,574,-480
2446.633,5.019531,-3.672705,-4.826711,8.963891,-0.1182444,0.2087918,0.1395496,20,604,-492
2446.637,5.023438,-3.500323,-4.745308,9.150639,-0.1587244,0.278034,0.1629855,63,559,-511
2446.641,5.027344,-3.380613,-4.730942,8.987833,-0.1832255,0.314253,0.1747034,41,522,-491
2446.645,5.03125,-3.548207,-4.884171,8.662222,-0.1789644,0.3728426,0.1896171,-1,573,-512
2446.648,5.035156,-4.089296,-4.237737,8.628703,-0.2322276,0.4506069,0.2343582,38,590,-522
2446.652,5.039062,-4.19943,-6.684611,9.097966,-0.2918825,0.4612595,0.2450108,39,581,-503
2446.656,5.042969,-3.457227,-7.484274,9.054871,-0.2428803,0.4814995,0.1619202,48,582,-507
2446.66,5.046875,-2.75812,-5.84664,8.820239,-0.2599245,0.5677859,0.2343582,45,553,-489
2446.664,5.050781,-3.050213,-4.070143,8.954314,-0.330232,0.7020093,0.3696468,22,599,-495
2446.668,5.054688,-3.409343,-4.443638,8.939949,-0.3270362,0.7627293,0.3312972,8,584,-546
2446.672,5.058594,-3.835511,-5.315128,8.916007,-0.3398194,0.8330368,0.273773,29,549,-527
2446.676,5.0625,-3.730166,-6.272808,9.141062,-0.3376888,0.9310411,0.2950782,34,575,-537
2446.68,5.066406,-3.217807,-6.411672,9.112332,-0.3238404,1.02585,0.3387541,62,564,-515
2446.684,5.070312,-2.777274,-5.870582,9.045294,-0.3227751,1.137702,0.3739078,25,596,-467
2446.688,5.074219,-3.112462,-5.224148,9.016563,-0.3355583,1.251686,0.4005394,43,572,-515
2446.691,5.078125,-3.481169,-5.396531,9.126697,-0.3259709,1.39017,0.4314321,24,593,-512
2446.695,5.082031,-3.581726,-5.81791,9.069236,-0.3227751,1.484979,0.4484763,-8,536,-514
2446.699,5.085938,-3.533842,-6.258443,9.155427,-0.3291667,1.564873,0.4772385,-15,583,-509
2446.703,5.089844,-3.438074,-5.999869,9.059659,-0.2993393,1.690575,0.535828,24,595,-516
2446.707,5.09375,-3.548207,-5.583278,9.294291,-0.2865561,1.793905,0.5805691,-11,569,-526
2446.711,5.097656,-3.706224,-5.272032,9.572018,-0.241815,1.889779,0.6114618,13,570,-550
2446.715,5.101562,-4.050989,-3.648763,8.863335,-0.2727077,2.051699,0.608266,43,554,-482
2446.719,5.105469,-3.648763,-6.14831,11.00854,-0.1502023,2.122007,0.5912218,-11,556,-482
2446.723,5.109375,-2.676717,-3.648763,9.59596,-0.2045308,2.27434,0.592287,28,599,-508
2446.727,5.113281,-2.858677,-3.725378,9.945514,-0.3057309,2.41602,0.6636597,49,601,-536
2446.73,5.117188,-3.572149,-5.27682,9.490615,-0.1683118,2.590723,0.6625945,25,581,-518
2446.734,5.121094,-3.945644,-5.875371,9.662998,-0.1874865,2.781405,0.6508766,-7,580,-503
2446.738,5.125,-4.419696,-5.659893,9.725247,-0.2790993,2.873018,0.6796387,12,570,-536
2446.742,5.128906,-4.189853,-5.463568,8.920795,-0.3131877,3.037069,0.7978831,0,583,-491
2446.746,5.132812,-4.07972,-6.382942,8.944737,-0.3717773,3.168096,0.8799084,55,558,-520
2446.75,5.136719,-4.189853,-7.115567,8.853758,-0.3962784,3.289537,0.9448896,16,544,-481
2446.754,5.140625,-4.625598,-8.178593,8.90643,-0.3568636,3.454653,1.10681,48,527,-485
2446.758,5.144531,-3.74932,-8.432378,7.963115,-0.3334278,3.608051,1.221858,-13,582,-463
2446.762,5.148438,-3.596091,-7.829039,7.910442,-0.3675162,3.80619,1.260208,28,575,-496
2446.766,5.152344,-3.840299,-8.169016,8.916007,-0.2396845,4.072506,1.394431,21,593,-502
2446.77,5.15625,-3.385401,-6.555324,7.920019,-0.2524677,4.24934,1.563808,14,533,-470
2446.773,5.160156,-3.754108,-5.137957,7.97748,-0.4452805,4.428304,1.698032,-20,544,-469
2446.777,5.164062,-4.553772,-5.530606,8.853758,-0.4335626,4.628574,1.83332,4,559,-498
2446.781,5.167969,-4.247314,-8.346187,9.375694,-0.4559332,4.910869,1.999501,-15,574,-500
2446.785,5.171875,-3.193865,-8.389283,9.366117,-0.4729774,5.146292,2.073005,0,569,-496
2446.789,5.175781,-2.624045,-7.867347,9.246407,-0.4420847,5.448828,2.163552,19,550,-475
2446.793,5.179688,-2.092532,-8.571242,8.834604,-0.3568636,5.88239,2.309493,-11,551,-467
2446.797,5.183594,-2.011129,-8.413225,7.805097,-0.3696468,6.209426,2.447978,-8,538,-460
2446.801,5.1875,-2.446874,-7.800309,7.690176,-0.4644553,6.578008,2.668487,6,583,-481
2446.805,5.191406,-3.141193,-7.31668,8.394071,-0.6370281,7.035006,3.073288,17,533,-465
2446.809,5.195312,-3.351882,-7.177817,9.006987,-0.8426242,7.33115,3.3428,32,557,-475
2446.812,5.199219,-3.41892,-7.010222,9.260772,-1.02585,7.624098,3.570766,-16,553,-472
2446.816,5.203125,-2.87783,-5.712565,10.29986,-1.269795,8.050203,3.919108,-16,526,-489
2446.82,5.207031,-1.929727,-5.564125,11.06121,-1.548894,8.499745,4.158792,8,586,-496
2446.824,5.210938,-1.489193,-5.00867,12.16733,-1.782187,8.972722,4.359062,10,540,-457
2446.828,5.214844,-2.303222,-4.836287,11.90876,-2.042112,9.471266,4.564658,-6,543,-449
2446.832,5.21875,-7.120356,-6.545747,12.40196,-2.402171,10.1818,4.89489,10,579,-428
2446.836,5.222656,-13.94862,-10.62547,13.09149,-2.391519,10.38526,5.220861,-61,587,-440
2446.84,5.226562,-21.74414,-13.68047,15.08347,-2.178466,10.24891,5.502091,6,589,-447
2446.844,5.230469,-37.39264,-15.47612,9.323021,-1.716141,9.685384,5.665076,-17,523,-419
2446.848,5.234375,-46.27513,-15.51443,8.09719,-1.670335,8.909872,5.575594,-56,571,-459
2446.852,5.238281,-48.01811,-14.92066,10.19451,-1.669269,7.905327,5.425392,-54,587,-426
