t_native_s,t_opt_s,ax,ay,az,gx,gy,gz,mx,my,mz
2443.184,-0.00140625,-9.581595,-3.189077,-2.413355,0.1928129,0.0298274,-0.1938781,-1111,1992,90
2443.188,0.0025,-9.514557,-3.213019,-2.42772,0.237554,0.00958738,-0.1864213,-1156,2023,127
2443.191,0.00640625,-9.514557,-3.117251,-2.274492,0.2886867,-0.01065264,-0.1778992,-1159,2066,125
2443.195,0.0103125,-9.461885,-2.738967,-2.082955,0.3557983,-0.02876214,-0.169377,-1138,2043,81
2443.199,0.01421875,-9.418789,-2.355894,-1.972822,0.3845605,-0.04580637,-0.1619202,-1131,2064,87
2443.203,0.018125,-9.390059,-1.987187,-1.905785,0.4037352,-0.05752428,-0.1597897,-1134,2009,104
2443.207,0.02203125,-9.299079,-1.714248,-1.733402,0.4197142,-0.06817692,-0.1565939,-1136,1985,106
2443.211,0.0259375,-9.308656,-1.37906,-1.61848,0.4261058,-0.07030745,-0.1523328,-1197,2053,82
2443.215,0.02984375,-9.275137,-1.096544,-1.565808,0.4090615,-0.0777643,-0.1533981,-1147,1989,70
2443.219,0.03375,-9.323021,-0.9337386,-1.537077,0.3888215,-0.08522115,-0.1544633,-1151,2038,80
2443.223,0.03765625,-9.318233,-0.8044518,-1.446098,0.366451,-0.09161274,-0.1523328,-1141,1981,35
2443.227,0.0415625,-9.270349,-0.6943185,-1.340753,0.3291667,-0.08522115,-0.1533981,-1121,1961,169
2443.23,0.04546875,-9.212888,-0.6224924,-1.273715,0.2897519,-0.09161274,-0.1544633,-1150,2022,120
2443.234,0.049375,-9.251195,-0.5602432,-1.225831,0.2535329,-0.09800433,-0.1576591,-1168,2017,116
2443.238,0.05328125,-9.260772,-0.6847417,-1.197101,0.2162487,-0.09906959,-0.1555286,-1132,2025,61
2443.242,0.0571875,-9.241618,-0.8140286,-1.264138,0.1778992,-0.09480853,-0.1544633,-1130,2026,98
2443.246,0.06109375,-9.318233,-0.8954314,-1.206678,0.144876,-0.09906959,-0.1565939,-1128,2000,131
2443.25,0.065,-9.303868,-1.029507,-1.16837,0.1214401,-0.1107875,-0.1576591,-1177,2002,99
2443.254,0.06890625,-9.284714,-1.16837,-1.211466,0.1075917,-0.1139833,-0.1587244,-1131,2007,66
2443.258,0.0728125,-9.284714,-1.340753,-1.192312,0.09906959,-0.1075917,-0.1608549,-1116,2035,103
2443.262,0.07671875,-9.303868,-1.412579,-1.302446,0.1012001,-0.1097222,-0.1672465,-1137,1988,94
2443.266,0.080625,-9.303868,-1.513135,-1.28808,0.1043959,-0.1214401,-0.1683118,-1147,1967,117
2443.27,0.08453125,-9.289502,-1.656788,-1.28808,0.1182444,-0.1246359,-0.1715076,-1160,2041,126
2443.273,0.0884375,-9.313444,-1.757344,-1.278504,0.1502023,-0.1182444,-0.1725728,-1154,2059,34
2443.277,0.09234375,-9.346963,-1.781286,-1.264138,0.169377,-0.1257012,-0.1736381,-1125,2071,104
2443.281,0.09625,-9.35654,-1.762132,-1.249773,0.1800297,-0.1363538,-0.1715076,-1121,2003,84
2443.285,0.1001563,-9.370905,-1.723825,-1.302446,0.1906823,-0.1438107,-0.1683118,-1138,2003,149
2443.289,0.1040625,-9.346963,-1.714248,-1.278504,0.2002697,-0.1459412,-0.1672465,-1149,2022,83
2443.293,0.1079688,-9.323021,-1.675941,-1.244985,0.205596,-0.1480718,-0.1629855,-1152,1999,133
2443.297,0.111875,-9.32781,-1.613692,-1.23062,0.1960087,-0.1587244,-0.1629855,-1102,2008,77
2443.301,0.1157813,-9.251195,-1.651999,-1.134852,0.1832255,-0.1661813,-0.1587244,-1099,1983,83
2443.305,0.1196875,-9.299079,-1.719037,-1.177947,0.165116,-0.1672465,-0.1523328,-1096,1977,75
2443.309,0.1235938,-9.241618,-1.781286,-1.187524,0.1384844,-0.169377,-0.1470065,-1184,1978,125
2443.312,0.1275,-9.318233,-1.92015,-1.206678,0.1107875,-0.1736381,-0.1427454,-1187,1994,73
2443.316,0.1314063,-9.260772,-2.073379,-1.206678,0.08628642,-0.1864213,-0.1363538,-1134,2043,84
2443.32,0.1353125,-9.294291,-2.154781,-1.316811,0.06711166,-0.1917476,-0.1310275,-1118,1970,96
2443.324,0.1392188,-9.279926,-2.087744,-1.25935,0.05326322,-0.1928129,-0.1267665,-1127,2021,131
2443.328,0.143125,-9.193734,-1.94888,-1.292869,0.04154531,-0.2034655,-0.1193096,-1174,2029,111
2443.332,0.1470313,-9.179369,-1.977611,-1.221043,0.02769688,-0.2109224,-0.1171791,-1177,2009,86
2443.336,0.1509375,-9.112332,-1.881843,-1.177947,0.006391587,-0.205596,-0.1161138,-1102,2008,77
2443.34,0.1548438,-9.107543,-1.896208,-1.072602,-0.005326322,-0.1960087,-0.1161138,-1101,2009,99
2443.344,0.15875,-9.179369,-1.900996,-0.9624691,-0.0149137,-0.2045308,-0.1150486,-1165,2017,137
2443.348,0.1626563,-9.184158,-1.929727,-1.010353,-0.02556635,-0.2077266,-0.1139833,-1149,2008,113
2443.352,0.1665625,-9.255984,-1.972822,-0.9624691,-0.03834952,-0.2045308,-0.1097222,-1161,2023,56
2443.355,0.1704688,-9.332598,-2.073379,-1.000776,-0.04474111,-0.201335,-0.1033307,-1109,2063,102
2443.359,0.174375,-9.284714,-2.207454,-0.9528923,-0.03941478,-0.2162487,-0.09693906,-1117,2007,87
2443.363,0.1782813,-9.270349,-2.245761,-0.8283938,-0.0298274,-0.221575,-0.09480853,-1136,2007,118
2443.367,0.1821875,-9.23683,-2.274492,-0.8858546,-0.02769688,-0.2119876,-0.09374327,-1169,1998,94
2443.371,0.1860938,-9.232042,-2.221819,-0.8044518,-0.008522115,-0.2045308,-0.09374327,-1156,2020,83
2443.375,0.19,-9.251195,-2.217031,-0.6320692,0.005326322,-0.2066613,-0.09374327,-1101,2003,106
2443.379,0.1939063,-9.203311,-2.274492,-0.5841852,0.01917476,-0.2077266,-0.09161274,-1118,1977,111
2443.383,0.1978125,-9.284714,-2.42772,-0.5650316,0.02663161,-0.1981392,-0.08841695,-1166,1999,142
2443.387,0.2017188,-9.318233,-2.748544,-0.4309563,0.04154531,-0.1864213,-0.08309063,-1159,2019,125
2443.391,0.205625,-9.380482,-2.906561,-0.4070143,0.06072007,-0.1928129,-0.07882957,-1149,2005,78
2443.395,0.2095313,-9.370905,-3.078943,-0.2681506,0.07989483,-0.1949434,-0.07350325,-1134,2023,55
2443.398,0.2134375,-9.375694,-3.093309,-0.3112462,0.1022654,-0.1800297,-0.06711166,-1127,1982,121
2443.402,0.2173438,-9.318233,-3.045425,-0.2011129,0.1320928,-0.1704423,-0.05752428,-1126,2017,125
2443.406,0.22125,-9.303868,-2.901772,-0.2154781,0.1587244,-0.1736381,-0.05539375,-1118,2011,124
2443.41,0.2251563,-9.303868,-2.72939,-0.1628057,0.169377,-0.1736381,-0.0479369,-1133,2015,75
2443.414,0.2290625,-9.279926,-2.566584,-0.1484405,0.1736381,-0.1640507,-0.04154531,-1146,1942,83
2443.418,0.2329688,-9.251195,-2.422932,-0.1388637,0.1661813,-0.1597897,-0.03621899,-1127,2043,75
2443.422,0.236875,-9.318233,-2.25055,-0.08619126,0.1427454,-0.1533981,-0.03195793,-1172,1999,133
2443.426,0.2407813,-9.241618,-2.130839,-0.04788403,0.1161138,-0.1555286,-0.02663161,-1122,1998,118
2443.43,0.2446875,-9.23683,-2.035071,0.01436521,0.08522115,-0.1416802,-0.02450108,-1164,2054,110
2443.434,0.2485938,-9.131485,-1.968034,0.05267244,0.0479369,-0.1310275,-0.01917476,-1111,1986,80
2443.438,0.2525,-9.107543,-1.944092,0.1101333,0.00958738,-0.1257012,-0.0149137,-1115,2015,104
2443.441,0.2564063,-9.126697,-1.939303,0.1675941,-0.008522115,-0.1193096,-0.01278317,-1132,2025,105
2443.445,0.2603125,-9.131485,-1.972822,0.1340753,-0.02769688,-0.1054612,-0.00958738,-1144,1998,104
2443.449,0.2642188,-9.184158,-2.015918,0.1436521,-0.04048005,-0.09161274,-0.006391587,-1115,2028,96
2443.453,0.268125,-9.155427,-2.097321,0.1771709,-0.04048005,-0.08309063,-0.006391587,-1128,1910,88
2443.457,0.2720313,-9.14585,-2.06859,0.09576807,-0.03515373,-0.07989483,-0.006391587,-1129,2022,113
2443.461,0.2759375,-9.174581,-1.996764,0.04309563,-0.02663161,-0.07137272,-0.00958738,-1135,1990,83
2443.465,0.2798438,-9.203311,-1.814805,-0.03351882,-0.02663161,-0.05645902,-0.00958738,-1126,2044,73
2443.469,0.28375,-9.174581,-1.623269,-0.05746084,-0.02663161,-0.05752428,-0.01278317,-1129,2027,40
2443.473,0.2876563,-9.155427,-1.422156,-0.1388637,-0.0298274,-0.05645902,-0.01597897,-1105,1989,69
2443.477,0.2915625,-9.112332,-1.283292,-0.07182605,-0.03408846,-0.04154531,-0.02130529,-1097,1989,132
2443.48,0.2954688,-9.141062,-1.154005,-0.09576807,-0.04154531,-0.02663161,-0.02237055,-1165,2002,116
2443.484,0.299375,-9.093178,-1.134852,-0.06703765,-0.06072007,-0.0181095,-0.02663161,-1195,2013,108
2443.488,0.3032813,-9.126697,-1.125275,-0.09097966,-0.06817692,-0.01065264,-0.03089267,-1145,2022,83
2443.492,0.3071875,-9.126697,-1.16837,-0.02873042,-0.07563377,0.005326322,-0.03515373,-1109,1988,77
2443.496,0.3110938,-9.14585,-1.115698,0.03351882,-0.08202536,0.01278317,-0.04048005,-1081,1973,101
2443.5,0.315,-9.198523,-1.082179,-0.02394202,-0.09800433,0.02450108,-0.04154531,-1162,1951,113
2443.504,0.3189063,-9.097966,-1.077391,0.01436521,-0.1075917,0.02769688,-0.04900216,-1139,2011,100
2443.508,0.3228125,-9.131485,-1.086968,0.1292869,-0.1171791,0.03834952,-0.05539375,-1112,2043,68
2443.512,0.3267188,-9.078813,-1.058237,0.1819593,-0.1299623,0.05326322,-0.0660464,-1106,1995,88
2443.516,0.330625,-9.112332,-1.077391,0.2777274,-0.1555286,0.07137272,-0.07563377,-1136,2000,114
2443.52,0.3345313,-9.102755,-1.187524,0.3782839,-0.1725728,0.07882957,-0.08415589,-1147,2052,115
2443.523,0.3384375,-9.11712,-1.211466,0.4357447,-0.185356,0.08948221,-0.09267801,-1164,2054,92
2443.527,0.3423438,-9.02614,-1.211466,0.4692635,-0.2045308,0.1033307,-0.1001349,-1121,2044,103
2443.531,0.34625,-9.074024,-1.158794,0.545878,-0.2300971,0.1246359,-0.1065264,-1108,2019,69
2443.535,0.3501563,-9.006987,-1.235408,0.5746084,-0.2460761,0.1310275,-0.112918,-1128,2019,99
2443.539,0.3540625,-8.944737,-1.23062,0.6320692,-0.2631203,0.1438107,-0.1214401,-1146,1989,122
2443.543,0.3579688,-8.987833,-1.25935,0.641646,-0.2844256,0.1640507,-0.1278317,-1191,2030,90
2443.547,0.361875,-8.949526,-1.216254,0.6464344,-0.3046656,0.1778992,-0.1331581,-1115,2051,71
2443.551,0.3657813,-8.935161,-1.201889,0.6655881,-0.3334278,0.1885518,-0.1438107,-1108,1949,119
2443.555,0.3696875,-8.939949,-1.192312,0.6751649,-0.350472,0.2045308,-0.1555286,-1126,2012,97
2443.559,0.3735938,-8.968679,-1.235408,0.5985504,-0.3717773,0.221575,-0.1629855,-1144,2026,84
2443.562,0.3775,-8.925584,-1.240196,0.5889736,-0.3930826,0.2396845,-0.169377,-1167,1998,86
2443.566,0.3814063,-8.959103,-1.345541,0.5793968,-0.4165184,0.2545982,-0.1832255,-1121,2090,65
2443.57,0.3853125,-8.978256,-1.345541,0.5841852,-0.4282363,0.2727077,-0.1896171,-1137,2004,99
2443.574,0.3892188,-8.968679,-1.460463,0.5315128,-0.4378237,0.2918825,-0.1981392,-1203,2001,141
2443.578,0.393125,-8.944737,-1.522712,0.3878607,-0.4442153,0.3014698,-0.2024002,-1163,2036,146
2443.582,0.3970313,-8.935161,-1.584961,0.4022259,-0.4463458,0.3206446,-0.2119876,-1161,2021,119
2443.586,0.4009375,-8.99741,-1.651999,0.2873042,-0.4442153,0.3323625,-0.2194445,-1090,1980,105
2443.59,0.4048438,-8.939949,-1.642422,0.3064578,-0.4356932,0.3515373,-0.2247708,-1132,2015,118
2443.594,0.40875,-8.954314,-1.599327,0.2202666,-0.4324974,0.3643204,-0.2322276,-1161,1982,104
2443.598,0.4126563,-9.016563,-1.594538,0.2154781,-0.4239752,0.3749731,-0.2450108,-1129,2027,98
2443.602,0.4165625,-8.939949,-1.493982,0.2059013,-0.4154531,0.3845605,-0.2524677,-1201,2028,98
2443.605,0.4204688,-8.935161,-1.412579,0.1197101,-0.40267,0.3984089,-0.2652508,-1086,1992,99
2443.609,0.424375,-9.016563,-1.417367,0.06224924,-0.3952131,0.4090615,-0.2759035,-1122,1994,141
2443.613,0.4282813,-8.973468,-1.493982,-0.1963245,-0.386691,0.4207795,-0.2886867,-1174,2021,141
2443.617,0.4321875,-9.035717,-1.632846,-0.344765,-0.370712,0.4250405,-0.2950782,-1132,2024,141
2443.621,0.4360938,-9.054871,-1.833958,-0.4405331,-0.3483415,0.4335626,-0.3004046,-1183,2002,71
2443.625,0.44,-9.011775,-1.881843,-0.545878,-0.3366236,0.44315,-0.3004046,-1127,2036,103
2443.629,0.4439063,-9.016563,-1.867477,-0.6655881,-0.3227751,0.4484763,-0.3004046,-1126,2004,131
2443.633,0.4478125,-9.02614,-1.891419,-0.6320692,-0.3067962,0.4559332,-0.3004046,-1156,1957,105
2443.637,0.4517188,-8.978256,-1.848324,-0.7374141,-0.2908172,0.4623248,-0.298274,-1144,2012,108
2443.641,0.455625,-9.050082,-1.915361,-0.7613561,-0.273773,0.4751079,-0.2993393,-1148,1997,90
2443.645,0.4595313,-9.059659,-1.905785,-0.7996634,-0.2428803,0.4857606,-0.3057309,-1107,1984,72
2443.648,0.4634375,-9.112332,-1.929727,-0.7709329,-0.2258361,0.4878911,-0.309992,-1125,1979,140
2443.652,0.4673438,-9.093178,-1.958457,-0.8236054,-0.2173139,0.495348,-0.3195793,-1143,1993,123
2443.656,0.47125,-9.02614,-1.910573,-0.6655881,-0.2098571,0.5134575,-0.3259709,-1113,2045,86
2443.66,0.4751563,-8.935161,-1.723825,-0.5315128,-0.2141182,0.5262406,-0.3291667,-1157,2010,133
2443.664,0.4790625,-8.925584,-1.604115,-0.4788403,-0.2300971,0.5219796,-0.3376888,-1085,2012,95
2443.668,0.4829688,-8.916007,-1.49877,-0.5315128,-0.2364887,0.5294364,-0.3419499,-1156,2048,134
2443.672,0.486875,-8.829816,-1.546654,-0.5363012,-0.2396845,0.5464807,-0.3419499,-1155,1971,154
2443.676,0.4907813,-8.882488,-1.68073,-0.5554548,-0.2343582,0.5667207,-0.3376888,-1151,2037,108
2443.68,0.4946875,-8.848969,-1.92015,-0.4453215,-0.221575,0.5731123,-0.3355583,-1161,2025,42
2443.684,0.4985938,-8.8777,-2.020706,-0.4453215,-0.2119876,0.5763081,-0.3366236,-1135,2002,91
2443.688,0.5025,-8.801085,-1.987187,-0.3303998,-0.2024002,0.5954828,-0.3408846,-1124,1989,106
2443.691,0.5064063,-8.647856,-1.877054,-0.2537854,-0.2002697,0.6189186,-0.3526025,-1137,1983,148
2443.695,0.5103125,-8.657433,-1.690306,-0.2633622,-0.1864213,0.6359629,-0.370712,-1126,2037,111
2443.699,0.5142188,-8.796297,-1.561019,-0.1819593,-0.1885518,0.6455502,-0.3802994,-1124,2030,65
2443.703,0.518125,-8.810662,-1.671153,-0.2106897,-0.1896171,0.6583334,-0.3802994,-1115,1989,120
2443.707,0.5220313,-8.801085,-1.934515,-0.3878607,-0.1747034,0.6764429,-0.3792341,-1134,1980,129
2443.711,0.5259375,-8.777143,-2.355894,-0.5841852,-0.1352886,0.6934871,-0.3760383,-1147,2019,125
2443.715,0.5298438,-8.753201,-2.681506,-0.7278373,-0.1107875,0.6998787,-0.3760383,-1159,1975,69
2443.719,0.53375,-8.686164,-2.916138,-0.9050082,-0.08202536,0.7084008,-0.3877563,-1137,2028,78
2443.723,0.5376563,-8.705317,-2.868254,-0.9241618,-0.05752428,0.7158577,-0.3994742,-1091,2008,99
2443.727,0.5415625,-8.839393,-2.513912,-1.264138,-0.04474111,0.7179882,-0.3973436,-1139,1996,106
2443.73,0.5454688,-8.853758,-2.355894,-1.522712,-0.02343582,0.7233146,-0.40267,-1172,2012,128
2443.734,0.549375,-8.925584,-2.231396,-1.742979,0.002130529,0.7286409,-0.4090615,-1181,2041,85
2443.738,0.5532813,-9.006987,-2.212242,-1.929727,0.00958738,0.7286409,-0.4090615,-1106,2029,83
2443.742,0.5571875,-9.02614,-2.212242,-2.260126,-0.002130529,0.7329019,-0.4058658,-1112,1992,83
2443.746,0.5610938,-8.935161,-2.135628,-2.523489,-0.01278317,0.7403588,-0.4048005,-1106,2035,117
2443.75,0.565,-8.963891,-2.011129,-2.480393,-0.03621899,0.737163,-0.406931,-1143,2052,138
2443.754,0.5689063,-9.02614,-1.872266,-2.715025,-0.07350325,0.7382283,-0.406931,-1124,2007,77
2443.758,0.5728125,-8.99741,-2.011129,-2.920926,-0.08522115,0.7552725,-0.4090615,-1107,2049,67
2443.762,0.5767188,-9.045294,-2.331952,-2.930503,-0.06498113,0.7563377,-0.406931,-1119,2049,61
2443.766,0.580625,-9.141062,-2.868254,-2.992752,-0.05006743,0.7488809,-0.3962784,-1118,2009,87
2443.77,0.5845313,-9.193734,-3.375824,-3.007117,-0.05965481,0.7446198,-0.3802994,-1143,1992,133
2443.773,0.5884375,-9.112332,-3.62961,-3.107674,-0.08309063,0.737163,-0.3728426,-1155,2035,89
2443.777,0.5923438,-9.131485,-3.5099,-3.098097,-0.1012001,0.7243798,-0.3749731,-1113,2052,100
2443.781,0.59625,-9.179369,-3.275268,-3.055001,-0.1235707,0.7126619,-0.370712,-1128,1983,72
2443.785,0.6001563,-9.232042,-3.102885,-3.007117,-0.1470065,0.7073356,-0.3579289,-1090,2009,115
2443.789,0.6040625,-9.404424,-3.193865,-3.021482,-0.1640507,0.7020093,-0.3526025,-1095,2046,118
2443.793,0.6079688,-9.442731,-3.409343,-2.868254,-0.1928129,0.6977482,-0.3472762,-1145,2074,84
2443.797,0.611875,-9.423578,-3.318364,-2.906561,-0.2290319,0.6966829,-0.3440804,-1104,2034,84
2443.801,0.6157813,-9.437943,-3.20823,-2.724601,-0.2599245,0.6998787,-0.3408846,-1115,2025,75
2443.805,0.6196875,-9.346963,-3.069367,-2.796428,-0.2876214,0.700944,-0.3376888,-1088,1997,86
2443.809,0.6235938,-9.485827,-2.925714,-2.839523,-0.3046656,0.7105314,-0.3323625,-1158,2055,146
2443.812,0.6275,-9.543288,-2.99754,-2.829946,-0.3057309,0.7190535,-0.3259709,-1109,2023,104
2443.816,0.6314063,-9.586383,-3.002329,-2.772486,-0.3014698,0.721184,-0.3227751,-1120,2040,102
2443.82,0.6353125,-9.59596,-2.82037,-2.844312,-0.3206446,0.7233146,-0.3185141,-1106,2024,101
2443.824,0.6392188,-9.639056,-2.552219,-2.925714,-0.3291667,0.7510114,-0.3110572,-1099,1994,114
2443.828,0.643125,-9.634267,-2.322376,-2.810793,-0.3291667,0.7765778,-0.3131877,-1182,2020,113
2443.832,0.6470313,-9.572018,-2.03986,-3.892972,-0.3121225,0.7861652,-0.3185141,-1155,2073,77
2443.836,0.6509375,-9.198523,-2.528277,-2.916138,-0.2854909,0.8628642,-0.3131877,-1088,2023,59
2443.84,0.6548438,-9.883264,-1.28808,-2.240973,-0.3025351,0.8181231,-0.3174488,-1104,2031,70
2443.844,0.65875,-10.22803,-0.7182605,-3.069367,-0.4207795,0.8426242,-0.3025351,-1135,2032,97
2443.848,0.6626563,-11.15219,-0.8475474,-2.140416,-0.3994742,0.8543421,-0.2695119,-1134,2036,131
2443.852,0.6665625,-11.66455,-1.489193,-1.436521,-0.3366236,0.8671253,-0.241815,-1158,2055,87
2443.855,0.6704688,-10.83137,-2.566584,-1.853112,-0.3387541,0.8916263,-0.273773,-1097,2084,91
2443.859,0.674375,-10.69729,-2.049437,-1.68073,-0.3685815,0.9203885,-0.3227751,-1122,2079,90
2443.863,0.6782813,-11.38682,-1.489193,-1.297657,-0.4974785,0.9289106,-0.3174488,-1104,2018,131
2443.867,0.6821875,-12.27268,-1.426944,-0.2298434,-0.5187838,0.9416938,-0.2790993,-1130,2042,141
2443.871,0.6860938,-12.57914,-1.73819,-0.6560113,-0.5507417,0.9651296,-0.2961435,-1146,2094,113
2443.875,0.69,-12.27747,-1.833958,0.08140286,-0.5816344,0.9981528,-0.3419499,-1121,2024,86
2443.879,0.6939063,-12.04762,-1.886631,0.3160346,-0.628506,1.02798,-0.3802994,-1109,2040,126
2443.883,0.6978125,-11.96143,-1.752556,0.1436521,-0.6455502,1.058873,-0.3920173,-1107,2010,126
2443.887,0.7017188,-12.19606,-1.666364,0.3734955,-0.6423545,1.116397,-0.3834952,-1113,2081,183
2443.891,0.705625,-12.25352,-1.80044,0.9337386,-0.6274408,1.164334,-0.3856257,-1147,2079,53
2443.895,0.7095313,-12.24874,-1.594538,0.9097966,-0.6125271,1.202684,-0.4111921,-1105,2049,120
2443.898,0.7134375,-12.36845,-1.187524,1.115698,-0.5890912,1.254882,-0.4378237,-1114,2044,99
2443.902,0.7173438,-12.87123,-0.8762778,1.551443,-0.5134575,1.333711,-0.4569984,-1123,2030,119
2443.906,0.72125,-13.07713,-0.8379706,1.695095,-0.4250405,1.400823,-0.479369,-1121,2051,149
2443.91,0.7251563,-13.19684,-0.7852981,1.766921,-0.3174488,1.463673,-0.5145227,-1150,2064,77
2443.914,0.7290625,-13.14896,-0.1005565,1.843535,-0.2407498,1.504153,-0.5539375,-1114,2036,118
2443.918,0.7329688,-12.92869,1.206678,1.795651,-0.2269013,1.544633,-0.5997439,-1115,2030,116
2443.922,0.736875,-12.76109,3.002329,2.461239,-0.2428803,1.619202,-0.660464,-1103,2033,173
2443.926,0.7407813,-12.72758,3.773262,2.418144,-0.2695119,1.67353,-0.7222493,-1156,2054,113
2443.93,0.7446875,-12.85686,4.065354,2.408567,-0.2865561,1.745968,-0.793622,-1152,2062,88
2443.934,0.7485938,-13.27345,3.375824,1.412579,-0.2972088,1.847169,-0.8617989,-1123,2028,116
2443.938,0.7525,-14.10664,2.633622,3.672705,-0.2482066,1.949434,-0.9502159,-1105,1999,120
2443.941,0.7564063,-14.27902,3.050213,0.8236054,-0.3941478,1.959021,-1.042894,-1134,2044,130
2443.945,0.7603125,-15.07868,2.959233,1.25935,-0.4261058,2.063417,-1.095092,-1116,2088,147
2443.949,0.7642188,-16.29015,2.643199,1.968034,-0.3398194,2.086853,-1.091896,-1148,2054,95
2443.953,0.768125,-16.57745,1.972822,0.8475474,-0.3483415,2.109224,-1.164334,-1084,2031,74
2443.957,0.7720313,-17.07066,2.408567,0.794875,-0.3834952,2.156095,-1.266599,-1121,2060,164
2443.961,0.7759375,-18.05228,2.983175,1.053449,-0.4612595,2.178466,-1.320928,-1144,2038,135
2443.965,0.7798438,-18.76575,3.308787,1.043872,-0.5145227,2.177401,-1.337972,-1157,2072,137
2443.969,0.78375,-19.08179,3.476381,0.8619126,-0.5837649,2.17527,-1.383779,-1147,2089,92
2443.973,0.7876563,-19.10094,3.581726,1.321599,-0.6689861,2.181662,-1.419997,-1087,2066,101
2443.977,0.7915625,-19.28769,3.936068,2.748544,-0.7797736,2.204032,-1.439172,-1083,2008,166
2443.98,0.7954688,-19.75695,4.548983,3.169923,-0.9374327,2.212554,-1.458347,-1103,2055,158
2443.984,0.799375,-20.16397,4.984728,3.825934,-1.08657,2.247708,-1.480718,-1131,2096,125
2443.988,0.8032813,-20.33635,5.152322,4.338293,-1.196292,2.251969,-1.48924,-1151,2126,113
2443.992,0.8071875,-20.12087,3.782839,7.398083,-1.219728,2.321211,-1.438107,-1096,2067,93
2443.996,0.8110938,-20.38423,2.461239,9.80665,-1.163269,2.351039,-1.350755,-1139,2046,156
2444,0.815,-20.6476,4.333505,9.332598,-1.331581,2.267948,-1.310275,-1165,2034,139
2444.004,0.8189063,-20.89659,7.661445,8.2169,-1.444499,2.225337,-1.294296,-1177,2094,147
2444.008,0.8228125,-20.34114,8.614338,4.031836,-1.51161,2.162487,-1.246359,-1127,2074,100
2444.012,0.8267188,-18.11453,5.530606,3.428497,-1.431715,2.13692,-1.174987,-1104,2024,104
2444.016,0.830625,-13.63737,0.8140286,5.449203,-1.318797,2.207228,-1.194161,-1133,2058,161
2444.02,0.8345313,-10.91756,-1.149217,5.463568,-1.434911,2.323342,-1.272991,-1133,2055,163
2444.023,0.8384375,-9.80665,-2.791639,1.201889,-1.609615,2.487392,-1.341168,-1172,2077,150
2444.027,0.8423438,-9.677363,-5.497087,-2.145205,-1.751295,2.680205,-1.435976,-1156,2135,106
2444.031,0.84625,-11.50653,-6.981492,-3.600879,-1.767274,2.867692,-1.547829,-1120,2080,105
2444.035,0.8501563,-13.30697,-7.589619,-3.983952,-1.73212,3.010437,-1.606419,-1116,2088,123
2444.039,0.8540625,-15.1936,-8.365341,-3.500323,-1.667139,3.072223,-1.539307,-1143,2102,147
2444.043,0.8579688,-16.69716,-9.040505,-3.174711,-1.61281,3.067962,-1.417867,-1109,2138,169
2444.047,0.861875,-17.72188,-9.528923,-2.557007,-1.561678,3.031743,-1.272991,-1151,2121,144
2444.051,0.8657813,-18.33001,-9.021352,-2.408567,-1.479652,2.913498,-1.079113,-1134,2115,134
2444.055,0.8696875,-18.09538,-8.78672,-1.316811,-1.432781,2.765426,-0.942759,-1114,2084,166
2444.059,0.8735938,-17.20473,-8.073248,-2.293645,-1.319863,2.55983,-0.8362326,-1129,2070,143
2444.062,0.8775,-15.63414,-7.97748,-2.513912,-1.131311,2.388323,-0.7329019,-1157,2169,152
2444.066,0.8814063,-13.75229,-7.891289,-3.653552,-0.7392935,2.163552,-0.628506,-1169,2083,127
2444.07,0.8853125,-12.59829,-7.829039,-4.089296,-0.4335626,2.010154,-0.5645902,-1107,2050,101
2444.074,0.8892188,-11.6454,-7.359776,-5.204994,-0.1214401,1.859952,-0.5070659,-1142,2070,160
2444.078,0.893125,-10.94629,-6.655881,-6.138733,0.0660464,1.703358,-0.4516721,-1103,2086,136
2444.082,0.8970313,-10.22324,-5.434838,-5.947197,0.2226403,1.496697,-0.3547331,-1150,2102,129
2444.086,0.9009375,-9.71567,-4.309563,-5.90889,0.2503371,1.321993,-0.2790993,-1092,2152,102
2444.09,0.9048438,-9.346963,-3.270479,-5.679046,0.241815,1.160073,-0.2087918,-1138,2075,137
2444.094,0.90875,-8.987833,-2.312799,-5.482722,0.2641856,1.008805,-0.1576591,-1118,2108,127
2444.098,0.9126563,-8.75799,-1.719037,-5.094861,0.2908172,0.8639295,-0.0958738,-1155,2106,133
2444.102,0.9165625,-8.513781,-1.527501,-5.185841,0.3227751,0.7627293,-0.07243798,-1117,2156,129
2444.105,0.9204688,-8.087613,-1.862689,-5.209783,0.3078614,0.6764429,-0.07563377,-1041,2101,89
2444.109,0.924375,-7.532158,-2.327164,-5.319916,0.2471413,0.5890912,-0.112918,-1103,2125,119
2444.113,0.9282813,-6.445191,-3.687071,-4.979939,0.1906823,0.495348,-0.1725728,-1091,2091,144
2444.117,0.9321875,-5.966351,-4.659116,-4.745308,0.1981392,0.4506069,-0.2024002,-1097,2134,149
2444.121,0.9360938,-5.66947,-5.152322,-4.544195,0.2716424,0.4101268,-0.2130529,-1138,2160,157
2444.125,0.94,-5.420473,-5.410896,-4.764461,0.3717773,0.3600594,-0.1917476,-1100,2115,135
2444.129,0.9439063,-5.185841,-6.263232,-4.405331,0.5432849,0.2993393,-0.1118528,-1107,2085,104
2444.133,0.9478125,-4.941632,-6.971915,-4.074931,0.7201188,0.2194445,-0.03621899,-1084,2100,159
2444.137,0.9517188,-4.625598,-7.920019,-3.414132,0.9353022,0.1161138,0.05326322,-1108,2122,145
2444.141,0.955625,-4.280833,-8.341399,-3.600879,1.153681,-0.01917476,0.1427454,-1112,2125,125
2444.145,0.9595313,-3.672705,-8.954314,-3.936068,1.423193,-0.201335,0.2514024,-1071,2108,100
2444.148,0.9634375,-3.366248,-9.251195,-4.247314,1.618137,-0.330232,0.3185141,-1091,2092,115
2444.152,0.9673438,-3.045425,-9.232042,-4.443638,1.79284,-0.4559332,0.3696468,-1109,2106,157
2444.156,0.97125,-2.853888,-8.992621,-4.52983,1.938781,-0.5805691,0.3984089,-1118,2100,153
2444.16,0.9751563,-2.657564,-8.51857,-4.582502,2.048504,-0.7073356,0.4165184,-1113,2123,106
2444.164,0.9790625,-2.537854,-7.671022,-4.261679,2.173139,-0.8628642,0.4314321,-1091,2116,95
2444.168,0.9829688,-2.317587,-6.98628,-3.998317,2.240251,-0.9715212,0.4452805,-1089,2109,126
2444.172,0.986875,-2.044648,-6.23929,-3.754108,2.288188,-1.081243,0.4601942,-1081,2110,146
2444.176,0.9907813,-1.699883,-5.66947,-3.490746,2.304167,-1.181378,0.4910869,-1124,2106,124
2444.18,0.9946875,-1.393425,-5.262455,-2.99754,2.297775,-1.321993,0.5667207,-1087,2096,88
2444.184,0.9985938,-1.23062,-5.444415,-2.552219,2.289253,-1.433846,0.6434197,-1095,2113,101
2444.188,1.0025,-1.130063,-5.621585,-2.461239,2.270079,-1.560612,0.7179882,-1099,2087,129
2444.191,1.006406,-1.015142,-5.770026,-2.461239,2.243447,-1.684183,0.7765778,-1105,2079,116
2444.195,1.010313,-0.9911995,-5.659893,-2.264915,2.231729,-1.845038,0.8351673,-1084,2096,117
2444.199,1.014219,-1.479617,-5.477933,-2.001553,2.258361,-1.95263,0.8543421,-1112,2034,96
2444.203,1.018125,-2.504335,-5.319916,-1.843535,2.302036,-2.066613,0.8447547,-1052,2047,106
2444.207,1.022031,-4.012682,-5.27682,-1.728614,2.354234,-2.174205,0.8170578,-1003,2053,117
2444.211,1.025938,-5.09965,-4.841076,-1.675941,2.553439,-2.378735,0.7989483,-1100,2059,120
2444.215,1.029844,-3.902549,-4.089296,-1.762132,2.783536,-2.548113,0.8532768,-1100,2106,77
2444.219,1.03375,-1.604115,-3.653552,-1.225831,3.02322,-2.655704,0.9363674,-1015,2123,109
2444.223,1.037656,-0.6464344,-3.53863,-0.9481039,3.167031,-2.668487,1.00774,-1029,2116,113
2444.227,1.041563,-1.637634,-3.643975,-0.617704,3.097789,-2.671683,1.080178,-1086,2058,118
2444.23,1.045469,-2.75812,-3.462016,-0.7038953,2.908172,-2.749448,1.152616,-1094,2069,87
2444.234,1.049375,-3.414132,-2.959233,-0.6368576,2.716424,-2.8613,1.280448,-1067,2107,100
2444.238,1.053281,-3.596091,-2.149993,-0.6033388,2.561961,-2.98061,1.44876,-1045,2089,69
2444.242,1.057188,-3.385401,-1.173159,-1.01993,2.406432,-3.100985,1.687379,-1035,2011,101
2444.246,1.061094,-3.189077,-1.192312,-1.278504,2.295645,-3.159574,1.843973,-1077,2029,113
2444.25,1.065,-3.232172,-1.719037,-1.460463,2.135855,-3.214968,1.964348,-1055,2047,104
2444.254,1.068906,-3.169923,-2.494758,-1.369483,1.908954,-3.270362,2.049569,-1094,2066,120
2444.258,1.072813,-3.107674,-2.557007,-1.795651,1.510545,-3.356648,2.11668,-1042,2099,92
2444.262,1.076719,-3.055001,-2.217031,-2.087744,1.216532,-3.413107,2.163552,-1052,2000,49
2444.266,1.080625,-3.246537,-1.805228,-2.221819,0.9661948,-3.459979,2.217881,-1068,2019,66
2444.27,1.084531,-3.615245,-1.412579,-2.494758,0.741424,-3.501524,2.279666,-1098,2040,96
2444.273,1.088438,-4.036624,-1.182736,-2.72939,0.4612595,-3.547331,2.353169,-1116,2059,72
2444.277,1.092344,-4.31914,-1.082179,-2.99754,0.2609898,-3.570766,2.401106,-1067,2063,87
2444.281,1.09625,-4.668693,-1.249773,-3.232172,0.06711166,-3.604855,2.45863,-1025,2014,60
2444.285,1.100156,-4.831499,-1.556231,-3.342306,-0.1225054,-3.64427,2.522546,-1056,2020,85
2444.289,1.104063,-5.252878,-2.063802,-3.562572,-0.2833603,-3.682619,2.603506,-1064,2028,113
2444.293,1.107969,-5.583278,-2.652775,-3.605668,-0.4559332,-3.749731,2.704706,-1091,2056,66
2444.297,1.111875,-5.865794,-2.964022,-3.696647,-0.5816344,-3.802994,2.763296,-1068,2051,68
2444.301,1.115781,-5.93762,-2.983175,-3.687071,-0.7084008,-3.857323,2.810168,-1059,2006,84
2444.305,1.119688,-5.746084,-2.566584,-3.5099,-0.8170578,-3.924434,2.858104,-1068,1999,80
2444.309,1.123594,-5.736507,-1.776498,-3.581726,-0.9374327,-4.007525,2.955044,-1095,2034,72
2444.312,1.1275,-6.291962,-1.742979,-3.591302,-1.017328,-4.054396,3.058374,-1075,2086,97
2444.316,1.131406,-7.16824,-2.274492,-3.596091,-1.072721,-4.111921,3.154248,-1068,2071,123
2444.32,1.135313,-7.958326,-3.112462,-3.543418,-1.097222,-4.180098,3.207511,-1070,2023,43
2444.324,1.139219,-8.681375,-4.194641,-3.667917,-1.081243,-4.266384,3.217099,-1057,2009,77
2444.328,1.143125,-9.035717,-4.88896,-3.816357,-1.023719,-4.328169,3.20112,-1096,1994,88
2444.332,1.147031,-9.342175,-5.592855,-4.161122,-0.8958874,-4.398477,3.184075,-1093,2038,77
2444.336,1.150938,-9.844957,-6.291962,-4.405331,-0.6956177,-4.462393,3.167031,-1075,2046,31
2444.34,1.154844,-10.55843,-7.354988,-4.663905,-0.3355583,-4.543353,3.131877,-1074,1982,65
2444.344,1.15875,-10.80743,-7.953538,-4.639963,-0.08735168,-4.590224,3.093528,-1100,1988,93
2444.348,1.162656,-10.91756,-8.164228,-4.596867,0.1171791,-4.636031,3.048787,-1093,2035,78
2444.352,1.166563,-10.93192,-8.010999,-4.635174,0.2812298,-4.677576,3.00085,-1119,2001,37
2444.355,1.170469,-10.99896,-7.661445,-4.821922,0.4740427,-4.710599,2.96037,-1093,2019,53
2444.359,1.174375,-10.9846,-7.52737,-4.927267,0.5688512,-4.724448,2.958239,-1101,1996,19
2444.363,1.178281,-11.20965,-7.240066,-4.946421,0.6253102,-4.728709,2.958239,-1099,1993,123
2444.367,1.182188,-11.55442,-6.670246,-4.79798,0.6636597,-4.727644,2.955044,-1170,2016,39
2444.371,1.186094,-12.24874,-5.755661,-4.88896,0.7488809,-4.719121,2.983806,-1144,2033,40
2444.375,1.19,-12.88559,-5.415684,-4.850653,0.8436894,-4.697816,3.025351,-1094,2008,39
2444.379,1.193906,-13.54639,-5.214571,-5.080496,0.9267801,-4.673315,3.062635,-1088,1996,54
2444.383,1.197813,-14.07791,-5.434838,-5.272032,0.9683254,-4.634966,3.092463,-1082,1990,66
2444.387,1.201719,-14.37479,-5.813122,-5.473145,0.9619338,-4.561462,3.108442,-1164,2018,29
2444.391,1.205625,-14.45619,-5.899313,-5.549759,0.9363674,-4.497546,3.106311,-1146,2033,32
2444.395,1.209531,-14.40831,-5.707777,-5.626374,0.9033442,-4.434696,3.091397,-1106,2002,49
2444.398,1.213438,-14.42746,-5.257667,-5.650316,0.8490158,-4.355866,3.076484,-1063,1992,47
2444.402,1.217344,-14.61421,-4.707,-5.770026,0.7925567,-4.277037,3.058374,-1111,1985,67
2444.406,1.22125,-14.76744,-3.892972,-5.808333,0.7052051,-4.17051,3.050917,-1153,2060,28
2444.41,1.225156,-14.93982,-3.332729,-5.784391,0.5997439,-4.081028,3.045591,-1123,2001,21
2444.414,1.229063,-14.97813,-3.016694,-5.774814,0.4846953,-3.979828,3.018959,-1141,2011,19
2444.418,1.232969,-14.93503,-2.978387,-5.592855,0.3568636,-3.857323,2.953978,-1128,2002,29
2444.422,1.236875,-14.97813,-2.954445,-5.516241,0.1821602,-3.703924,2.813363,-1104,1975,67
2444.426,1.240781,-15.02122,-3.141193,-5.353435,0.05219796,-3.573962,2.686597,-1099,2002,85
2444.43,1.244688,-14.96376,-3.433285,-5.353435,-0.01278317,-3.442935,2.548113,-1184,2018,39
2444.434,1.248594,-14.51844,-3.912126,-5.544971,-0.01704423,-3.294863,2.398976,-1139,2029,26
2444.438,1.2525,-13.35965,-5.123592,-5.731719,0.1054612,-3.074353,2.193379,-1113,1969,18
2444.441,1.256406,-12.24395,-6.315904,-5.803545,0.2567287,-2.883671,2.03359,-1102,2006,45
2444.445,1.260313,-11.06121,-7.431602,-5.995081,0.4079963,-2.700445,1.855691,-1125,2022,51
2444.449,1.264219,-9.888053,-8.197746,-6.014235,0.531567,-2.494849,1.674596,-1116,2029,4
2444.453,1.268125,-8.504204,-8.418013,-6.335058,0.6210492,-2.228533,1.422128,-1096,2038,-18
2444.457,1.272031,-7.489063,-8.09719,-6.574478,0.6508766,-2.016546,1.223989,-1112,1953,37
2444.461,1.275938,-6.751649,-7.632715,-6.789956,0.680704,-1.783253,1.013066,-1131,1993,55
2444.465,1.279844,-5.995081,-7.297527,-6.933608,0.7222493,-1.544633,0.8000136,-1141,2031,39
2444.469,1.28375,-5.272032,-7.038953,-6.904878,0.7925567,-1.217597,0.4964132,-1182,2025,22
2444.473,1.287656,-4.960786,-6.789956,-6.842628,0.8074704,-0.9502159,0.2545982,-1100,1979,-1
2444.477,1.291563,-4.812345,-6.354211,-6.732495,0.8010789,-0.6828345,0.007456851,-1103,2006,-16
2444.48,1.295469,-4.903325,-5.990293,-6.655881,0.7850999,-0.4154531,-0.2343582,-1146,1998,54
2444.484,1.299375,-5.094861,-5.363012,-6.71813,0.7446198,-0.06711166,-0.5326322,-1172,2029,40
2444.488,1.303281,-5.348647,-5.003881,-6.83784,0.6817692,0.1938781,-0.7360977,-1157,2046,61
2444.492,1.307188,-5.616797,-4.654328,-7.082049,0.6210492,0.42291,-0.9267801,-1122,2012,1
2444.496,1.311094,-5.961562,-4.419696,-7.417237,0.5539375,0.6551376,-1.101483,-1144,1990,78
2444.5,1.315,-6.162675,-4.568137,-7.852981,0.4772385,0.9310411,-1.321993,-1143,1971,44
2444.504,1.318906,-6.167463,-5.023035,-8.140286,0.4239752,1.119593,-1.484979,-1177,2017,48
2444.508,1.322813,-6.033388,-5.554548,-8.465897,0.3749731,1.285774,-1.641572,-1190,2031,14
2444.512,1.326719,-5.822698,-6.229713,-8.868123,0.3185141,1.456216,-1.794971,-1129,2014,11
2444.516,1.330625,-5.544971,-6.952762,-9.710882,0.2471413,1.65329,-1.977131,-1122,2001,2
2444.52,1.334531,-5.798756,-7.450756,-8.101978,0.2567287,1.766208,-2.086853,-1133,1992,95
2444.523,1.338438,-6.622362,-7.302315,-3.725378,0.4122573,1.806688,-2.180596,-1197,2025,11
2444.527,1.342344,-8.561665,-4.635174,0.56982,0.8021441,1.784318,-2.272209,-1210,2025,4
2444.531,1.34625,-13.83849,0.2873042,6.244078,1.397627,1.763013,-2.353169,-1102,2008,30
2444.535,1.350156,-21.68189,10.35732,17.81286,2.230664,1.705488,-2.345712,-1127,2015,72
2444.539,1.354063,-36.31525,23.98511,22.07933,2.615224,1.573396,-2.005893,-1133,1977,39
2444.543,1.357969,-50.19204,33.04956,6.019023,2.749448,1.419997,-0.9779128,-1143,1978,68
2444.547,1.361875,-44.56088,22.78322,-1.211466,3.459979,1.290035,0.02876214,-1164,2022,5
2444.551,1.365781,-21.17911,-3.744531,-12.96221,5.258145,1.474326,0.2663161,-1138,2025,34
2444.555,1.369688,-9.696517,-14.62857,-10.6111,6.579073,1.682053,0.241815,-1111,1979,1
2444.559,1.373594,-8.494627,-14.09227,-10.55364,6.312757,1.512675,0.2109224,-1121,1975,20
2444.562,1.3775,-10.50576,-8.619126,-9.457097,2.49698,1.226119,-0.3760383,-1163,1990,19
2444.566,1.381406,-4.884171,6.943185,-7.292738,-1.204814,1.385909,-1.398692,-1171,2008,0
2444.57,1.385313,-0.6129156,18.98602,-5.702988,-0.9534117,1.701227,-1.857821,-1127,2057,31
2444.574,1.389219,-3.016694,18.6221,-7.110779,-0.3376888,2.149704,-1.819472,-1117,1969,38
2444.578,1.393125,-9.313444,17.69315,-1.527501,-0.6274408,2.727077,-1.704423,-1169,1966,35
2444.582,1.397031,-13.93904,17.10418,2.715025,-1.52972,2.541721,-1.759817,-1157,2040,30
2444.586,1.400938,-12.14339,8.30788,-2.1883,-1.421063,2.051699,-1.551025,-1145,2031,33
2444.59,1.404844,-9.121908,-1.393425,-6.354211,-1.132376,1.93452,-1.416802,-1151,1971,19
2444.594,1.40875,-6.842628,-9.303868,-9.351752,-0.551807,2.051699,-1.380583,-1085,1984,56
2444.598,1.412656,-5.995081,-18.53112,-7.522582,0.7265103,2.147573,-1.465804,-1148,1975,61
2444.602,1.416563,-7.49864,-23.48712,-1.958457,1.806688,2.109224,-1.737446,-1155,2053,59
2444.605,1.420469,-10.68772,-23.72175,-1.900996,2.31482,1.941977,-2.054895,-1143,2060,20
2444.609,1.424375,-13.6278,-23.0418,-5.161899,1.869539,1.696966,-2.272209,-1089,1964,12
2444.613,1.428281,-14.14494,-19.5319,-9.188946,0.9044095,1.426389,-2.449043,-1120,2009,34
2444.617,1.432188,-12.35887,-15.03559,-7.924807,0.6881608,1.284709,-2.625877,-1140,1953,51
2444.621,1.436094,-10.62068,-10.08438,-7.273585,0.8554073,1.181378,-2.747317,-1156,2048,46
2444.625,1.44,-10.1993,-6.344634,-6.799533,1.098288,1.143029,-2.63866,-1131,2032,28
2444.629,1.443906,-10.97023,-2.5187,-5.343858,1.310275,0.9970875,-2.030394,-1111,2009,12
2444.633,1.447813,-11.34373,-0.8619126,-4.58729,1.245294,0.8554073,-1.405084,-1089,1990,54
2444.637,1.451719,-10.90319,-0.6033388,-3.663129,1.113201,0.7744472,-0.9331716,-1134,1997,27
2444.641,1.455625,-9.854534,-1.101333,-3.035848,0.9981528,0.7030745,-0.7392935,-1132,2024,-3
2444.645,1.459531,-7.896077,-1.49877,-2.916138,0.6498113,0.660464,-0.7819041,-1082,2035,11
2444.648,1.463438,-6.560113,-1.474828,-2.470816,0.2162487,0.6881608,-0.8628642,-1140,2002,27
2444.652,1.467344,-6.033388,-1.16837,-1.455675,-0.3004046,0.7329019,-0.9214537,-1129,2018,53
2444.656,1.47125,-6.26802,-1.039084,-0.5123592,-0.8149273,0.7456851,-0.9246495,-1146,2018,46
2444.66,1.475156,-7.503428,-1.422156,-0.3112462,-1.274056,0.7403588,-0.8575379,-1125,2028,39
2444.664,1.479063,-8.461109,-2.825158,-0.7996634,-1.755556,0.7222493,-0.6828345,-1092,2050,11
2444.668,1.482969,-9.160216,-3.974375,-1.335965,-1.925998,0.7275756,-0.535828,-1085,1973,17
2444.672,1.486875,-9.605537,-5.003881,-1.723825,-1.904693,0.7467504,-0.4154531,-1106,2005,51
2444.676,1.490781,-10.02692,-5.856217,-1.905785,-1.73212,0.7659251,-0.3611246,-1150,2035,45
2444.68,1.494688,-10.72602,-6.488286,-1.632846,-1.396562,0.7552725,-0.3717773,-1128,2036,21
2444.684,1.498594,-11.07079,-6.660669,-1.642422,-1.156877,0.7073356,-0.3813647,-1089,2022,45
2444.688,1.5025,-10.93192,-6.775591,-1.900996,-0.9672601,0.6551376,-0.3568636,-1074,2029,33
2444.691,1.506406,-10.54406,-6.74686,-2.499547,-0.8202536,0.6029397,-0.3281014,-1117,1982,64
2444.695,1.510313,-9.950302,-6.29675,-3.016694,-0.6146576,0.5273059,-0.350472,-1143,2018,76
2444.699,1.514219,-9.682152,-5.717354,-3.136404,-0.4410195,0.4857606,-0.4197142,-1156,2031,47
2444.703,1.518125,-9.768343,-4.774038,-2.935291,-0.2865561,0.459129,-0.4932174,-1080,2026,72
2444.707,1.522031,-9.979033,-3.912126,-2.72939,-0.1587244,0.4314321,-0.531567,-1076,2001,33
2444.711,1.525938,-10.28549,-3.150769,-2.552219,0.02450108,0.3856257,-0.5230448,-1155,2027,87
2444.715,1.529844,-10.47703,-2.772486,-2.365471,0.1640507,0.3515373,-0.4889564,-1150,2003,60
2444.719,1.53375,-10.53928,-2.762909,-2.217031,0.3025351,0.3249057,-0.44315,-1112,2040,35
2444.723,1.537656,-10.58716,-2.949656,-1.963245,0.4197142,0.3014698,-0.3994742,-1101,2045,19
2444.727,1.541563,-10.46745,-3.213019,-1.546654,0.5113269,0.2695119,-0.3366236,-1084,2021,22
2444.73,1.545469,-10.42435,-3.260903,-1.426944,0.5113269,0.2492719,-0.3227751,-1156,1965,96
2444.734,1.549375,-10.29986,-2.978387,-1.192312,0.4783037,0.2279666,-0.3259709,-1130,2054,51
2444.738,1.553281,-10.16578,-2.446874,-0.866701,0.3920173,0.2077266,-0.3462109,-1116,2036,43
2444.742,1.557188,-10.09395,-1.651999,-0.4932055,0.2130529,0.1960087,-0.3717773,-1125,2027,11
2444.746,1.561094,-9.969456,-1.13964,-0.1628057,0.05965481,0.1938781,-0.3813647,-1117,1982,60
2444.75,1.565,-9.672575,-0.6847417,0.004788403,-0.1022654,0.1800297,-0.386691,-1122,2010,53
2444.754,1.568906,-9.35654,-0.5171476,0.1197101,-0.2695119,0.1704423,-0.3877563,-1103,2063,53
2444.758,1.572813,-8.882488,-0.6943185,0.2920926,-0.4644553,0.1704423,-0.3952131,-1125,2001,54
2444.762,1.576719,-8.523358,-0.8044518,0.4357447,-0.5795039,0.1832255,-0.4090615,-1065,2009,44
2444.766,1.580625,-8.384494,-0.9002198,0.5746084,-0.6625945,0.1842907,-0.4165184,-1092,2001,38
2444.77,1.584531,-8.394071,-0.9576807,0.6991069,-0.7115966,0.1800297,-0.4005394,-1172,2017,63
2444.773,1.588438,-8.585607,-1.130063,0.9097966,-0.741424,0.1842907,-0.3675162,-1117,2048,64
2444.777,1.592344,-8.762778,-1.335965,0.9768343,-0.7659251,0.1874865,-0.298274,-1123,2032,0
2444.781,1.59625,-9.040505,-1.580173,1.034295,-0.7552725,0.1906823,-0.2428803,-1125,2005,81
2444.785,1.600156,-9.184158,-1.853112,1.039084,-0.7084008,0.1896171,-0.1981392,-1119,2028,84
2444.789,1.604063,-9.26556,-2.255338,1.015142,-0.6380934,0.1864213,-0.1725728,-1150,1982,47
2444.793,1.607969,-9.23683,-2.767697,0.9624691,-0.515588,0.2024002,-0.1672465,-1114,2041,66
2444.797,1.611875,-9.289502,-3.069367,1.034295,-0.4090615,0.221575,-0.185356,-1086,2062,14
2444.801,1.615781,-9.385271,-3.32794,0.9864111,-0.298274,0.2237055,-0.2109224,-1096,2015,20
2444.805,1.619688,-9.346963,-3.471592,0.818817,-0.185356,0.2173139,-0.2407498,-1101,1966,30
2444.809,1.623594,-9.437943,-3.289633,0.7182605,-0.05113269,0.2173139,-0.2854909,-1153,2035,76
2444.812,1.6275,-9.457097,-2.806004,0.7565677,0.0330232,0.2237055,-0.3217099,-1141,2052,38
2444.816,1.631406,-9.423578,-2.293645,0.9576807,0.1012001,0.2237055,-0.3536678,-1112,2022,73
2444.82,1.635313,-9.409213,-1.742979,1.149217,0.1267665,0.2194445,-0.3749731,-1107,1999,22
2444.824,1.639219,-9.32781,-0.7805097,1.312023,0.1033307,0.2290319,-0.3845605,-1118,1995,77
2444.828,1.643125,-9.155427,-0.09097966,1.517924,0.04154531,0.237554,-0.386691,-1147,1992,63
2444.832,1.647031,-9.016563,0.521936,1.412579,-0.03728426,0.2492719,-0.390952,-1099,1992,63
2444.836,1.650938,-8.810662,0.8714894,1.762132,-0.1193096,0.2716424,-0.3930826,-1157,1971,27
2444.84,1.654844,-8.595184,1.144428,1.910573,-0.2396845,0.2972088,-0.3941478,-1091,2010,29
2444.844,1.65875,-8.489839,0.8810662,1.944092,-0.3291667,0.3387541,-0.3952131,-1101,1995,75
2444.848,1.662656,-8.45632,0.4070143,2.011129,-0.4186489,0.3643204,-0.4122573,-1124,2009,36
2444.852,1.666563,-8.489839,0.04309563,1.886631,-0.4846953,0.3920173,-0.4346279,-1113,2021,31
2444.855,1.670469,-8.57603,-0.4884171,1.939303,-0.5060006,0.4218447,-0.459129,-1123,2052,27
2444.859,1.674375,-8.580819,-0.8619126,1.877054,-0.4964132,0.4580637,-0.4719121,-1074,1984,21
2444.863,1.678281,-8.686164,-1.072602,1.795651,-0.4676511,0.4857606,-0.4889564,-1119,1973,65
2444.867,1.682188,-8.801085,-1.063026,1.80044,-0.4346279,0.5091964,-0.5060006,-1100,2032,79
2444.871,1.686094,-8.743624,-0.9433155,1.824382,-0.3877563,0.5262406,-0.5347627,-1154,2046,51
2444.875,1.69,-8.643068,-0.6224924,1.819593,-0.3536678,0.5496764,-0.5539375,-1117,2014,51
2444.879,1.693906,-8.537723,-0.3064578,1.872266,-0.3323625,0.5858954,-0.572047,-1120,2021,25
2444.883,1.697813,-8.446743,0.05267244,1.896208,-0.3121225,0.6189186,-0.588026,-1100,1989,51
2444.887,1.701719,-8.264784,0.344765,1.944092,-0.3025351,0.6625945,-0.6093313,-1166,2010,57
2444.891,1.705625,-8.12592,0.3591302,1.661576,-0.3014698,0.6956177,-0.6221144,-1161,2056,55
2444.895,1.709531,-8.149862,0.225055,1.383849,-0.2865561,0.7339672,-0.6380934,-1142,2070,39
2444.898,1.713438,-8.2169,0.03830723,1.326388,-0.2695119,0.7701862,-0.6508766,-1069,2036,9
2444.902,1.717344,-8.489839,-0.2202666,1.115698,-0.2609898,0.8000136,-0.6636597,-1114,2022,63
2444.906,1.72125,-8.66701,-0.5410896,0.8523358,-0.2556635,0.8309063,-0.684965,-1130,1987,75
2444.91,1.725156,-8.939949,-0.6272808,0.6991069,-0.2684466,0.850081,-0.7073356,-1113,2035,2
2444.914,1.729063,-9.155427,-0.5793968,0.4309563,-0.2908172,0.8692558,-0.7360977,-1081,2033,33
2444.918,1.732969,-9.346963,-0.4836287,0.2106897,-0.3227751,0.8863,-0.7605988,-1096,2011,18
2444.922,1.736875,-9.672575,-0.5746084,-0.1101333,-0.3643204,0.9118664,-0.7850999,-1117,2004,57
2444.926,1.740781,-9.888053,-0.890643,-0.3064578,-0.3802994,0.9438243,-0.8000136,-1128,2003,84
2444.93,1.744688,-10.06044,-1.187524,-0.4357447,-0.4058658,0.9629991,-0.8191884,-1099,2047,42
2444.934,1.748594,-10.22803,-1.479617,-0.6081272,-0.4218447,0.9693906,-0.8383631,-1101,2088,42
2444.938,1.7525,-10.4866,-2.106897,-0.4453215,-0.4378237,0.9832391,-0.8596684,-1062,2004,81
2444.941,1.756406,-10.58716,-2.451662,-0.8140286,-0.4388889,1.013066,-0.8713863,-1102,2028,46
2444.945,1.760313,-10.72124,-2.72939,-0.5602432,-0.4548679,1.020523,-0.8777779,-1123,2039,72
2444.949,1.764219,-10.6542,-2.590526,-0.6895301,-0.4804343,1.012001,-0.8831042,-1119,2023,64
2444.953,1.768125,-10.55843,-2.322376,-0.5746084,-0.4900216,1.018393,-0.8841695,-1120,2048,48
2444.957,1.772031,-10.35732,-2.015918,-0.4501099,-0.4772385,1.045024,-0.8831042,-1056,2029,65
2444.961,1.775938,-10.11311,-1.762132,-0.2442086,-0.4697816,1.067395,-0.8799084,-1107,2015,63
2444.965,1.779844,-9.864111,-1.651999,-0.2154781,-0.4548679,1.071656,-0.8713863,-1099,2037,68
2444.969,1.78375,-9.572018,-1.70946,-0.1915361,-0.3941478,1.092961,-0.8511463,-1151,2044,31
2444.973,1.787656,-9.35654,-1.82917,-0.1628057,-0.3408846,1.123854,-0.8341021,-1147,2053,35
2444.977,1.791563,-9.217676,-1.867477,-0.1388637,-0.3036004,1.146225,-0.8287757,-1069,2013,34
2444.98,1.795469,-9.150639,-1.924938,0.1149217,-0.273773,1.159008,-0.829841,-1077,2007,71
2444.984,1.799375,-9.390059,-2.035071,0.3112462,-0.2386192,1.177117,-0.8436894,-1168,2002,77
2444.988,1.803281,-9.854534,-2.260126,0.5075708,-0.2322276,1.198422,-0.8639295,-1123,2049,62
2444.992,1.807188,-10.37168,-2.260126,0.8092402,-0.2407498,1.214401,-0.8948221,-1099,2059,43
2444.996,1.811094,-10.91756,-2.030283,0.8523358,-0.278034,1.233576,-0.938498,-1071,2020,37
2445,1.815,-11.26232,-1.292869,0.3064578,-0.3419499,1.290035,-1.00561,-1090,2032,96
2445.004,1.818906,-11.41555,-0.4165911,0.1484405,-0.3515373,1.341168,-1.04822,-1090,2076,104
2445.008,1.822813,-11.63103,0.2920926,-0.1005565,-0.3632552,1.375256,-1.059938,-1127,2030,34
2445.012,1.826719,-12.02847,0.4309563,0.2154781,-0.3643204,1.391235,-1.040763,-1053,2016,58
2445.016,1.830625,-12.38281,-0.05267244,0.9576807,-0.3323625,1.407214,-1.02798,-1113,2049,36
2445.02,1.834531,-12.27268,-0.04788403,-0.1484405,-0.390952,1.380583,-1.064199,-1061,1991,87
2445.023,1.838438,-11.72201,0.4118027,0.2920926,-0.4367584,1.434911,-1.137702,-1142,2073,89
2445.027,1.842344,-11.07079,0.6991069,-0.4357447,-0.4346279,1.490305,-1.204814,-1129,2059,58
2445.031,1.84625,-10.47703,0.4644751,0.4165911,-0.3568636,1.558482,-1.233576,-1105,2068,23
2445.035,1.850156,-10.30464,0.1101333,-0.1101333,-0.3451457,1.623463,-1.249555,-1075,2039,72
2445.039,1.854063,-10.817,0.004788403,0.4501099,-0.3312972,1.677791,-1.252751,-1105,2034,92
2445.043,1.857969,-11.40119,-0.272939,0.2394202,-0.3057309,1.71401,-1.235707,-1117,2054,80
2445.047,1.861875,-11.76511,-0.6943185,0.5793968,-0.2588593,1.748099,-1.232511,-1113,2062,33
2445.051,1.865781,-12.02368,-1.04866,0.8762778,-0.2482066,1.787514,-1.277252,-1093,2083,46
2445.055,1.869688,-12.42591,-0.7805097,1.192312,-0.298274,1.815211,-1.323058,-1118,2035,21
2445.059,1.873594,-12.967,-0.1197101,1.254562,-0.3728426,1.829059,-1.364604,-1076,2013,76
2445.062,1.8775,-13.42189,0.5554548,1.388637,-0.4410195,1.846103,-1.411475,-1099,2043,82
2445.066,1.881406,-13.57991,1.043872,1.441309,-0.5177185,1.876996,-1.474326,-1118,2052,31
2445.07,1.885313,-13.61822,1.206678,1.628057,-0.608266,1.905758,-1.535046,-1072,2053,34
2445.074,1.889219,-13.49372,1.412579,1.527501,-0.7275756,1.923868,-1.601092,-1111,2063,65
2445.078,1.893125,-13.57512,1.833958,1.460463,-0.829841,1.951564,-1.654356,-1111,2049,105
2445.082,1.897031,-13.64216,2.011129,1.508347,-0.9832391,1.983522,-1.71401,-1117,2069,97
2445.086,1.900938,-13.78102,2.164358,1.877054,-1.067395,2.004828,-1.758752,-1124,2063,53
2445.09,1.904844,-13.9965,2.954445,1.637634,-1.209075,1.989914,-1.820537,-1063,2066,42
2445.094,1.90875,-14.08748,3.672705,1.762132,-1.3678,2.046373,-1.883388,-1098,2017,65
2445.098,1.912656,-14.82011,3.174711,2.284068,-1.409345,2.15716,-1.917476,-1088,2046,69
2445.102,1.916563,-15.43781,1.996764,3.648763,-1.325189,2.242382,-1.907889,-1112,2027,58
2445.105,1.920469,-16.40028,1.302446,3.131616,-1.281513,2.281796,-1.916411,-1113,2053,26
2445.109,1.924375,-17.8368,2.073379,2.547431,-1.346494,2.269013,-1.944108,-1080,2044,62
2445.113,1.928281,-19.57978,5.176264,3.351882,-1.589375,2.217881,-2.000567,-1062,2002,52
2445.117,1.932188,-20.6859,7.393295,3.773262,-1.722533,2.186988,-1.997371,-1106,2033,79
2445.121,1.936094,-21.30839,8.710106,4.869806,-1.793905,2.169944,-1.967543,-1103,2048,82
2445.125,1.94,-21.69147,9.32781,6.234501,-1.886583,2.17527,-1.982457,-1113,2086,69
2445.129,1.943906,-22.38579,9.26556,8.33661,-2.054895,2.211489,-2.069809,-1093,2068,59
2445.133,1.947813,-23.09447,9.605537,9.35654,-2.23386,2.204032,-2.153965,-1080,2065,47
2445.137,1.951719,-23.69302,10.11311,10.05565,-2.440521,2.173139,-2.213619,-1091,2063,79
2445.141,1.955625,-24.17186,10.4483,11.90397,-2.601376,2.146508,-2.221076,-1125,2074,139
2445.145,1.959531,-24.01863,10.95108,12.0141,-2.730273,2.067678,-2.184857,-1119,2086,42
2445.148,1.963438,-22.53423,10.93192,10.57279,-2.88154,1.93239,-2.097506,-1097,2058,58
2445.152,1.967344,-19.68034,10.29028,7.551312,-2.974218,1.832255,-2.045308,-1089,2050,49
2445.156,1.97125,-15.76821,6.761225,4.841076,-2.924151,1.83119,-2.002697,-1051,2025,99
2445.16,1.975156,-12.27747,1.747767,1.599327,-2.695119,1.936651,-1.967543,-1107,2131,74
2445.164,1.979063,-9.495404,-5.094861,-2.686294,-2.452239,2.208293,-1.935585,-1127,2075,76
2445.168,1.982969,-9.059659,-8.322245,-4.237737,-2.353169,2.426672,-1.892975,-1083,2067,61
2445.172,1.986875,-9.816227,-9.610325,-4.43885,-2.380866,2.590723,-1.840777,-1084,2047,76
2445.176,1.990781,-11.20008,-9.768343,-2.700659,-2.563026,2.694054,-1.802427,-1104,2078,100
2445.18,1.994688,-13.97735,-9.308656,0.1005565,-2.886867,2.801645,-1.775796,-1133,2102,97
2445.184,1.998594,-16.53436,-8.69574,-2.494758,-3.082875,2.828277,-1.798166,-1117,2088,83
2445.188,2.0025,-18.56943,-8.585607,-4.553772,-3.169162,2.891128,-1.805623,-1114,2122,100
2445.191,2.006406,-20.42254,-8.652645,-5.420473,-3.192598,2.911368,-1.773665,-1072,2054,99
2445.195,2.010313,-21.87343,-9.581595,-4.865018,-3.033873,2.870888,-1.605354,-1107,2054,122
2445.199,2.014219,-21.81597,-10.63504,-4.625598,-2.862366,2.716424,-1.447694,-1160,2092,106
2445.203,2.018125,-19.94849,-11.57836,-4.625598,-2.634399,2.487392,-1.319863,-1122,2121,71
2445.207,2.022031,-16.95095,-11.74116,-4.850653,-2.386192,2.231729,-1.229315,-1106,2061,74
2445.211,2.025938,-13.10107,-10.45787,-6.382942,-2.084723,1.918541,-1.089766,-1118,2067,128
2445.215,2.029844,-10.93192,-8.513781,-9.222465,-1.99311,1.747034,-0.9012137,-1111,2079,132
2445.219,2.03375,-9.816227,-6.919243,-10.34295,-1.968609,1.622398,-0.6530071,-1129,2092,132
2445.223,2.037656,-9.667786,-5.501875,-11.40598,-1.801362,1.503088,-0.4207795,-1162,2072,69
2445.227,2.041563,-9.576807,-5.377377,-13.1729,-1.561678,1.370995,-0.128897,-1103,2077,121
2445.23,2.045469,-9.121908,-6.971915,-13.22078,-1.334776,1.297492,0.04580637,-1107,2084,98
2445.234,2.049375,-8.743624,-9.308656,-12.56956,-1.053547,1.215467,0.1139833,-1088,2056,123
2445.238,2.053281,-8.566454,-11.28627,-12.0572,-0.7542072,1.112136,0.07989483,-1114,2080,127
2445.242,2.057188,-8.75799,-12.92869,-10.70208,-0.5816344,0.8937569,-0.07882957,-1130,2102,87
2445.246,2.061094,-8.99741,-13.47936,-7.149086,-0.4846953,0.6348976,-0.2652508,-1104,2079,87
2445.25,2.065,-9.141062,-12.03805,-5.286397,-0.298274,0.3014698,-0.4751079,-1117,2052,92
2445.254,2.068906,-8.868123,-9.442731,-4.817134,-0.04900216,0.03834952,-0.6189186,-1100,2079,121
2445.258,2.072813,-8.030152,-6.335058,-3.773262,0.3110572,-0.1225054,-0.6743124,-1122,2101,127
2445.262,2.076719,-7.546524,-4.774038,-2.916138,0.6359629,-0.221575,-0.628506,-1114,2084,79
2445.266,2.080625,-7.058106,-3.964798,-3.050213,0.9725864,-0.3526025,-0.5294364,-1115,2117,102
2445.27,2.084531,-6.258443,-4.022259,-3.433285,1.244229,-0.4367584,-0.3920173,-1111,2087,85
2445.273,2.088438,-4.860229,-4.491522,-3.687071,1.453021,-0.5091964,-0.2673814,-1120,2063,145
2445.277,2.092344,-3.797204,-5.233725,-3.892972,1.659682,-0.6572682,-0.1576591,-1143,2113,93
2445.281,2.09625,-2.772486,-5.420473,-3.864241,1.733185,-0.777643,-0.1043959,-1144,2107,124
2445.285,2.100156,-1.982399,-5.501875,-3.854665,1.743838,-0.8756474,-0.05965481,-1149,2135,77
2445.289,2.104063,-1.364695,-5.568913,-3.639187,1.724663,-0.9800433,-0.0181095,-1109,2054,134
2445.293,2.107969,-0.9911995,-5.372589,-3.462016,1.69377,-1.153681,0.0330232,-1098,2080,105
2445.297,2.111875,-0.914585,-5.252878,-3.083732,1.644768,-1.264469,0.08628642,-1188,2096,160
2445.301,2.115781,-0.9720459,-5.075708,-2.437297,1.569135,-1.395496,0.1480718,-1154,2089,99
2445.305,2.119688,-1.086968,-4.740519,-1.848324,1.459412,-1.565939,0.2130529,-1122,2063,105
2445.309,2.123594,-1.206678,-3.74932,-1.340753,1.259143,-1.823733,0.3004046,-1087,2090,87
2445.312,2.1275,-1.254562,-2.547431,-1.115698,1.079113,-1.987783,0.3760383,-1122,2088,136
2445.316,2.131406,-1.158794,-1.091756,-1.187524,0.922519,-2.128398,0.4825648,-1142,2069,121
2445.32,2.135313,-1.043872,0.1101333,-1.13964,0.8181231,-2.266883,0.6061355,-1134,2094,58
2445.324,2.139219,-0.842759,1.25935,-1.28808,0.7584683,-2.407498,0.7637946,-1107,2095,88
2445.328,2.143125,-0.6607997,1.613692,-1.398214,0.7584683,-2.45863,0.8607337,-1131,2042,93
2445.332,2.147031,-0.5793968,1.283292,-1.513135,0.7510114,-2.485262,0.9438243,-1098,2092,118
2445.336,2.150938,-0.4836287,0.6224924,-1.666364,0.7307714,-2.541721,1.021589,-1142,2074,134
2445.34,2.154844,-0.4596867,-0.4261679,-2.015918,0.6753777,-2.616289,1.121723,-1130,2119,89
2445.344,2.15875,-0.521936,-1.187524,-2.169147,0.6508766,-2.669553,1.196292,-1128,2139,57
2445.348,2.162656,-0.6703765,-1.728614,-2.413355,0.6668555,-2.738795,1.263404,-1090,2089,47
2445.352,2.166563,-0.9433155,-2.284068,-2.748544,0.7201188,-2.815494,1.327319,-1101,2026,126
2445.355,2.170469,-1.312023,-2.887407,-3.064578,0.7978831,-2.94013,1.392301,-1154,2041,143
2445.359,2.174375,-1.584961,-3.222595,-3.284845,0.8181231,-3.020025,1.412541,-1154,2070,104
2445.363,2.178281,-1.877054,-3.457227,-3.428497,0.7914915,-3.110572,1.417867,-1125,2103,112
2445.367,2.182188,-2.015918,-3.500323,-3.428497,0.7392935,-3.189402,1.422128,-1116,2035,55
2445.371,2.186094,-1.934515,-3.313575,-3.452439,0.6689861,-3.30445,1.442368,-1112,2043,128
2445.375,2.19,-1.699883,-3.031059,-3.41892,0.6476808,-3.406716,1.484979,-1124,2058,94
2445.379,2.193906,-1.446098,-2.657564,-3.375824,0.6508766,-3.495133,1.55209,-1146,2084,105
2445.383,2.197813,-1.13964,-2.27928,-3.433285,0.6721819,-3.584615,1.640507,-1104,2070,91
2445.387,2.201719,-0.9337386,-2.030283,-3.462016,0.7147924,-3.687945,1.736381,-1107,2059,58
2445.391,2.205625,-0.9528923,-1.900996,-3.552995,0.7488809,-3.762514,1.878061,-1122,2072,78
2445.395,2.209531,-1.115698,-2.049437,-3.543418,0.7755125,-3.831756,1.985653,-1115,2060,153
2445.398,2.213438,-1.37906,-2.154781,-3.677494,0.7968178,-3.88928,2.081527,-1139,2099,57
2445.402,2.217344,-1.977611,-2.442086,-3.806781,0.8159926,-3.94787,2.159291,-1130,2059,74
2445.406,2.22125,-2.48997,-3.045425,-3.979163,0.8522115,-4.024569,2.2541,-1106,2009,48
2445.41,2.225156,-2.96881,-3.65834,-4.084508,0.8841695,-4.088485,2.327603,-1136,2037,122
2445.414,2.229063,-3.32794,-4.13718,-4.271256,0.9438243,-4.159858,2.391519,-1167,2077,107
2445.418,2.232969,-3.529053,-4.410119,-4.419696,1.042894,-4.234426,2.454369,-1155,2056,74
2445.422,2.236875,-3.533842,-4.606444,-4.510676,1.212271,-4.334561,2.555569,-1103,2069,80
2445.426,2.240781,-3.433285,-4.668693,-4.639963,1.366734,-4.403803,2.642921,-1123,2039,72
2445.43,2.244688,-3.222595,-4.616021,-4.611232,1.514806,-4.470915,2.740925,-1096,2022,70
2445.434,2.248594,-3.136404,-4.424485,-4.424485,1.657551,-4.513525,2.848517,-1166,2045,84
2445.438,2.2525,-3.126827,-4.036624,-3.974375,1.832255,-4.568919,3.016829,-1179,2077,50
2445.441,2.256406,-3.141193,-3.533842,-3.648763,1.915345,-4.597681,3.141465,-1132,2031,33
2445.445,2.260313,-3.371036,-2.944868,-3.457227,1.923868,-4.61153,3.26397,-1098,2031,88
2445.449,2.264219,-3.691859,-2.322376,-3.404555,1.822667,-4.622182,3.381149,-1130,1987,97
2445.453,2.268125,-4.118027,-2.030283,-3.557784,1.532916,-4.623248,3.526025,-1154,2059,83
2445.457,2.272031,-4.64954,-2.480393,-3.821146,1.315602,-4.638161,3.613377,-1151,2046,29
2445.461,2.275938,-5.334281,-3.145981,-4.118027,1.154747,-4.660532,3.678358,-1115,2057,56
2445.465,2.279844,-6.229713,-3.768473,-4.290409,0.999218,-4.67438,3.713512,-1093,1992,83
2445.469,2.28375,-8.528146,-3.955221,-4.721366,0.8106662,-4.690359,3.714577,-1187,2030,61
2445.473,2.287656,-10.48181,-4.094085,-5.45878,0.7115966,-4.739361,3.717773,-1175,2053,81
2445.477,2.291563,-12.04283,-4.496311,-5.688623,0.6636597,-4.79582,3.761449,-1171,2006,62
2445.48,2.295469,-12.90954,-4.630386,-5.880159,0.6498113,-4.862932,3.863714,-1132,2055,38
2445.484,2.299375,-14.04918,-5.233725,-6.47871,0.6721819,-4.950284,4.045874,-1137,1989,73
2445.488,2.303281,-15.50964,-5.923255,-6.469133,0.7510114,-4.982242,4.108725,-1134,1958,112
2445.492,2.307188,-17.29571,-6.062119,-6.033388,0.8756474,-5.012069,4.084224,-1140,2026,81
2445.496,2.311094,-18.67477,-5.774814,-5.334281,0.9512811,-5.020591,4.010721,-1167,2039,31
2445.5,2.315,-19.44092,-5.497087,-4.635174,0.8586031,-5.003547,3.831756,-1124,2014,43
2445.504,2.318906,-18.92856,-4.711789,-4.683058,0.6721819,-4.970524,3.640009,-1123,2008,68
2445.508,2.322813,-18.13368,-4.103662,-5.061342,0.4484763,-4.89276,3.483415,-1167,1981,56
2445.512,2.326719,-17.70273,-4.64954,-4.726154,0.2695119,-4.790494,3.410977,-1176,2027,100
2445.516,2.330625,-17.3819,-5.961562,-4.525041,0.1640507,-4.698881,3.391802,-1165,2024,63
2445.52,2.334531,-17.05629,-7.953538,-4.845864,0.07882957,-4.581702,3.38541,-1181,2044,60
2445.523,2.338438,-16.57266,-8.322245,-5.21936,0.02130529,-4.49009,3.36304,-1126,2019,84
2445.527,2.342344,-16.20396,-8.236054,-5.382165,-0.0298274,-4.379302,3.319364,-1175,2006,76
2445.531,2.34625,-16.12255,-8.197746,-5.501875,-0.04474111,-4.248275,3.255448,-1180,2023,62
2445.535,2.350156,-16.47211,-7.991845,-5.425261,-0.04900216,-4.053331,3.088202,-1181,2018,18
2445.539,2.354063,-16.8887,-7.216124,-5.300762,-0.07669904,-3.921238,2.894323,-1147,1963,46
2445.543,2.357969,-17.06587,-5.999869,-5.286397,-0.1150486,-3.791276,2.672748,-1182,1996,42
2445.547,2.361875,-16.79772,-4.721366,-5.051766,-0.1182444,-3.637878,2.466087,-1208,2031,60
2445.551,2.365781,-15.6485,-3.902549,-5.200206,-0.1203749,-3.426956,2.247708,-1201,2024,50
2445.555,2.369688,-14.35084,-4.189853,-5.784391,-0.1118528,-3.239469,2.102832,-1164,2028,36
2445.559,2.373594,-12.78983,-5.00867,-6.588843,-0.06817692,-3.032808,1.950499,-1166,1984,48
2445.562,2.3775,-11.07079,-6.234501,-7.388506,-0.005326322,-2.811233,1.785383,-1173,1969,66
2445.566,2.381406,-8.954314,-8.082825,-8.561665,0.1150486,-2.495915,1.541438,-1188,1999,58
2445.57,2.385313,-7.699753,-9.437943,-8.968679,0.2503371,-2.258361,1.356082,-1208,2034,29
2445.574,2.389219,-6.71813,-10.38605,-9.030929,0.4197142,-2.017611,1.179248,-1154,1993,52
2445.578,2.393125,-5.875371,-10.82179,-9.030929,0.5752428,-1.788579,0.9938917,-1155,1964,10
2445.582,2.397031,-4.999093,-10.51533,-8.078036,0.7691209,-1.457282,0.6945524,-1180,1993,53
2445.586,2.400938,-4.434061,-9.639056,-7.589619,0.8724516,-1.181378,0.4101268,-1204,2002,73
2445.59,2.404844,-4.122815,-8.643068,-6.775591,0.9555422,-0.8713863,0.09800433,-1201,2038,53
2445.594,2.40875,-4.276044,-7.235277,-6.335058,1.017328,-0.5656554,-0.2109224,-1208,2053,17
2445.598,2.412656,-4.821922,-5.406107,-6.248866,1.058873,-0.165116,-0.5624596,-1215,1969,36
2445.602,2.416563,-5.24809,-4.419696,-6.584055,1.065264,0.1310275,-0.7797736,-1153,2025,69
2445.605,2.420469,-5.453991,-4.194641,-6.861782,1.070591,0.4207795,-0.9715212,-1190,2035,48
2445.609,2.424375,-5.525817,-4.462792,-7.201759,1.10894,0.6934871,-1.132376,-1176,2024,47
2445.613,2.428281,-5.12838,-5.535394,-7.781155,1.186705,1.012001,-1.311341,-1165,2044,38
2445.617,2.432188,-4.831499,-6.114791,-8.279149,1.241033,1.233576,-1.447694,-1136,1981,45
2445.621,2.436094,-4.726154,-6.29675,-8.767566,1.283644,1.438107,-1.585113,-1179,2015,51
2445.625,2.44,-4.817134,-6.291962,-9.169792,1.30921,1.619202,-1.723598,-1197,2007,73
2445.629,2.443906,-5.473145,-6.062119,-8.365341,1.394431,1.838646,-1.888714,-1175,2027,42
2445.633,2.447813,-6.584055,-5.568913,-4.031836,1.551025,1.928129,-1.994175,-1154,2011,78
2445.637,2.451719,-8.920795,-3.39019,-0.2873042,1.881257,1.923868,-2.092179,-1177,1969,46
2445.641,2.455625,-13.08671,0.6751649,5.616797,2.287123,1.875931,-2.193379,-1157,1994,37
2445.645,2.459531,-23.2477,7.905654,12.25352,2.589658,1.733185,-2.286057,-1162,2050,74
2445.648,2.463438,-36.31046,23.95159,21.58612,2.94226,1.525459,-2.100701,-1196,2008,60
2445.652,2.467344,-46.64384,35.08463,6.962338,3.091397,1.278317,-1.361408,-1157,2035,13
2445.656,2.47125,-41.03662,25.24925,0.8379706,3.353452,1.163269,-0.44315,-1181,2030,23
2445.66,2.475156,-25.23489,7.177817,-5.525817,4.15027,1.125985,-0.05965481,-1137,2009,71
2445.664,2.479063,-11.42034,-9.993398,-9.481039,5.232579,1.481783,0.0298274,-1225,2045,79
2445.668,2.482969,-8.738836,-10.71645,-10.50097,5.29756,1.417867,-0.02130529,-1176,2027,48
2445.672,2.486875,-11.48259,-2.154781,-9.706094,3.48448,1.378452,-0.3366236,-1160,2000,13
2445.676,2.490781,-12.50731,6.382942,-6.186617,0.3515373,1.327319,-0.9629991,-1168,2018,75
2445.68,2.494688,-5.00867,16.19917,-4.821922,-0.942759,1.646899,-1.881257,-1120,1990,69
2445.684,2.498594,-1.058237,21.37543,-5.592855,-0.3930826,2.009089,-2.225337,-1144,2028,76
2445.688,2.5025,-3.979163,20.11129,-3.653552,-0.3930826,2.419216,-2.066613,-1190,2025,10
2445.691,2.506406,-9.753978,18.55506,2.30801,-1.560612,2.636529,-1.896171,-1147,1996,41
2445.695,2.510313,-11.49696,14.47055,3.615245,-2.999785,2.262622,-1.836516,-1142,1974,55
2445.699,2.514219,-8.781932,6.382942,1.158794,-3.116964,2.044242,-1.731055,-1150,1957,80
2445.703,2.518125,-6.344634,-2.595315,2.015918,-2.75797,2.108158,-1.611745,-1218,1977,87
2445.707,2.522031,-4.745308,-11.95664,2.48997,-2.061287,2.303102,-1.406149,-1187,2023,50
2445.711,2.525938,-6.421249,-21.96441,-2.87783,-0.6253102,2.607767,-1.24849,-1158,2028,45
2445.715,2.529844,-9.763554,-29.62585,-8.18817,0.298274,2.706837,-1.424259,-1165,1996,54
2445.719,2.53375,-12.78983,-34.7686,-12.78983,0.7265103,2.608833,-1.81095,-1140,1967,59
2445.723,2.537656,-13.83849,-36.43975,-11.70765,0.7062703,2.373409,-2.307363,-1238,2007,70
2445.727,2.541563,-12.68927,-31.0097,-9.045294,0.7712515,1.960087,-2.933738,-1153,2040,68
2445.73,2.545469,-10.75475,-23.42008,-8.259996,1.107875,1.745968,-3.275688,-1165,2066,57
2445.734,2.549375,-8.523358,-14.95418,-8.868123,1.716141,1.5702,-3.275688,-1140,2023,62
2445.738,2.553281,-6.995857,-9.011775,-8.930372,2.277535,1.397627,-2.787797,-1178,2005,85
2445.742,2.557188,-7.326257,-5.880159,-7.201759,2.712163,1.14942,-1.91215,-1149,1996,66
2445.746,2.561094,-8.508993,-4.299986,-6.26802,2.848517,0.9906959,-1.445564,-1124,2067,20
2445.75,2.565,-9.797073,-2.025495,-5.238513,2.871953,0.8756474,-1.150486,-1200,2016,43
2445.754,2.568906,-11.21444,1.407791,-4.419696,2.787797,0.8032094,-0.9459548,-1155,1979,18
2445.758,2.572813,-12.41154,5.425261,-3.007117,2.528938,0.7797736,-0.7978831,-1117,1990,46
2445.762,2.576719,-12.24874,9.337386,-2.806004,2.098571,0.7424893,-0.7030745,-1172,1984,101
2445.766,2.580625,-10.92714,8.743624,-3.490746,1.447694,0.7424893,-0.7222493,-1157,2028,74
2445.77,2.584531,-9.006987,5.439626,-3.53863,0.6306365,0.7914915,-0.7914915,-1186,2030,44
2445.773,2.588438,-7.469909,1.8579,-2.561796,-0.2641856,0.8223841,-0.829841,-1138,2009,62
2445.777,2.592344,-6.914454,-0.6943185,-1.326388,-1.311341,0.8085357,-0.777643,-1132,2002,59
2445.781,2.59625,-7.230489,-0.8858546,-1.297657,-1.859952,0.7850999,-0.7190535,-1169,2021,54
2445.785,2.600156,-7.704541,-0.8331822,-2.102109,-2.149704,0.813862,-0.6689861,-1150,2042,67
2445.789,2.604063,-8.494627,-1.637634,-2.964022,-2.173139,0.8873653,-0.6295713,-1161,2024,30
2445.793,2.607969,-9.710882,-3.787627,-3.653552,-1.93452,0.9736517,-0.6114618,-1134,1989,6
2445.797,2.611875,-10.59195,-5.482722,-3.576937,-1.662878,0.994957,-0.5965481,-1121,2008,75
2445.801,2.615781,-11.17134,-6.919243,-3.323152,-1.404019,0.9885654,-0.5592638,-1169,2026,87
2445.805,2.619688,-11.56399,-8.058883,-3.05979,-1.20801,0.9267801,-0.5230448,-1196,2019,43
2445.809,2.623594,-11.51611,-8.825027,-3.198653,-1.020523,0.7957525,-0.5123922,-1164,2024,54
2445.812,2.6275,-10.94629,-8.523358,-3.53863,-0.8937569,0.6913566,-0.5645902,-1130,1975,64
2445.816,2.631406,-10.30943,-7.522582,-3.600879,-0.7584683,0.6135923,-0.6380934,-1119,2009,97
2445.82,2.635313,-9.993398,-6.339846,-3.562572,-0.5944176,0.5699165,-0.7020093,-1166,2012,81
2445.824,2.639219,-10.34774,-5.233725,-3.1795,-0.3376888,0.531567,-0.7254451,-1196,2033,89
2445.828,2.643125,-10.76912,-4.745308,-2.916138,-0.149137,0.4974785,-0.6956177,-1159,2046,64
2445.832,2.647031,-11.05642,-4.429273,-2.600103,0.02450108,0.4580637,-0.6508766,-1143,2006,39
2445.836,2.650938,-11.01812,-4.213795,-2.30801,0.1832255,0.4165184,-0.5976133,-1176,1992,65
2445.84,2.654844,-10.6542,-3.993528,-1.877054,0.3834952,0.350472,-0.5251754,-1193,1993,101
2445.844,2.65875,-10.42914,-4.060566,-1.580173,0.5006743,0.314253,-0.4719121,-1164,2066,94
2445.848,2.662656,-10.30943,-4.170699,-1.292869,0.5858954,0.2790993,-0.4324974,-1169,2027,60
2445.852,2.666563,-10.21845,-3.974375,-1.082179,0.6093313,0.2482066,-0.4058658,-1111,2042,65
2445.855,2.670469,-10.04128,-3.074155,-0.8236054,0.4921522,0.1960087,-0.3877563,-1129,2007,65
2445.859,2.674375,-9.753978,-2.06859,-0.5889736,0.3334278,0.1704423,-0.370712,-1115,1999,105
2445.863,2.678281,-9.457097,-1.082179,-0.2873042,0.1438107,0.1661813,-0.3387541,-1162,2023,45
2445.867,2.682188,-9.093178,-0.3495534,0.1628057,-0.04474111,0.1736381,-0.298274,-1176,2023,61
2445.871,2.686094,-8.609549,0.02394202,0.4979939,-0.2769688,0.1789644,-0.2514024,-1141,2065,46
2445.875,2.69,-8.231265,-0.08140286,0.6033388,-0.42291,0.1906823,-0.2460761,-1144,2015,93
2445.879,2.693906,-8.025364,-0.1771709,0.6224924,-0.5390238,0.2162487,-0.2663161,-1169,2028,74
2445.883,2.697813,-8.030152,-0.2633622,0.7086837,-0.6125271,0.2460761,-0.2972088,-1144,2035,80
2445.887,2.701719,-8.42759,-0.3399766,0.6991069,-0.6317018,0.2673814,-0.3078614,-1175,2073,67
2445.891,2.705625,-8.791508,-0.8283938,0.7182605,-0.5965481,0.2759035,-0.2790993,-1129,2030,70
2445.895,2.709531,-9.045294,-1.426944,0.7374141,-0.551807,0.2759035,-0.2428803,-1110,2019,80
2445.898,2.713438,-9.260772,-1.94888,0.5985504,-0.5017395,0.2801645,-0.2109224,-1168,2055,103
2445.902,2.717344,-9.337386,-2.384625,0.4740519,-0.4474111,0.2833603,-0.1960087,-1183,2034,109
2445.906,2.72125,-9.519346,-2.451662,0.4070143,-0.386691,0.2727077,-0.2109224,-1204,2069,69
2445.91,2.725156,-9.557653,-2.178724,0.2154781,-0.334493,0.2705772,-0.2407498,-1123,2035,35
2445.914,2.729063,-9.634267,-1.94888,0.08140286,-0.2450108,0.2801645,-0.2822951,-1144,2018,101
2445.918,2.732969,-9.615114,-1.853112,-0.04788403,-0.1278317,0.2918825,-0.3270362,-1128,2012,78
2445.922,2.736875,-9.533711,-1.747767,0.225055,0.007456851,0.2961435,-0.3824299,-1187,2036,80
2445.926,2.740781,-9.481039,-1.369483,0.4596867,0.05219796,0.3036004,-0.4143879,-1171,2066,71
2445.93,2.744688,-9.260772,-0.7565677,0.7086837,0.04687164,0.309992,-0.4218447,-1141,2017,65
2445.934,2.748594,-9.155427,0.1723825,0.9241618,0.005326322,0.3174488,-0.4154531,-1147,1991,72
2445.938,2.7525,-8.920795,1.221043,1.197101,-0.0628506,0.3323625,-0.3856257,-1145,1978,52
2445.941,2.756406,-8.657433,1.584961,1.388637,-0.1150486,0.350472,-0.3621899,-1144,2047,97
2445.945,2.760313,-8.51857,1.441309,1.37906,-0.185356,0.3888215,-0.3515373,-1161,2037,32
2445.949,2.764219,-8.441955,1.039084,1.513135,-0.2545982,0.4143879,-0.3643204,-1156,2021,79
2445.953,2.768125,-8.451532,0.4357447,1.805228,-0.3312972,0.4676511,-0.4079963,-1117,2045,104
2445.957,2.772031,-8.537723,0.07182605,1.810016,-0.3717773,0.5006743,-0.4538026,-1161,1982,103
2445.961,2.775938,-8.662222,-0.2585738,1.819593,-0.3834952,0.5294364,-0.4985438,-1191,2033,74
2445.965,2.779844,-8.75799,-0.4740519,1.762132,-0.3717773,0.5613944,-0.5368933,-1153,2043,39
2445.969,2.78375,-8.762778,-0.8475474,1.843535,-0.3270362,0.6040049,-0.5635249,-1114,2030,81
2445.973,2.787656,-8.738836,-1.106121,1.814805,-0.2897519,0.6317018,-0.5741775,-1134,2027,49
2445.977,2.791563,-8.633491,-1.273715,1.656788,-0.2535329,0.6519418,-0.588026,-1155,1961,85
2445.98,2.795469,-8.57603,-1.192312,1.479617,-0.2194445,0.6796387,-0.6061355,-1161,2087,108
2445.984,2.799375,-8.51857,-1.130063,1.374272,-0.1597897,0.7137272,-0.628506,-1167,2035,46
2445.988,2.803281,-8.480262,-0.9385271,1.154005,-0.1193096,0.7392935,-0.6530071,-1126,1982,78
2445.992,2.807188,-8.446743,-0.818817,1.034295,-0.08628642,0.7637946,-0.6711166,-1096,2038,98
2445.996,2.811094,-8.437167,-0.5746084,0.9050082,-0.08628642,0.777643,-0.6892261,-1144,2021,100
2446,2.815,-8.418013,-0.296881,0.6320692,-0.1054612,0.8053399,-0.7084008,-1167,2055,48
2446.004,2.818906,-8.532935,-0.4022259,0.3351882,-0.08735168,0.8394284,-0.7201188,-1164,2063,69
2446.008,2.822813,-8.614338,-0.7230489,-0.05746084,-0.06817692,0.8628642,-0.7297061,-1129,2030,15
2446.012,2.826719,-8.729259,-1.235408,-0.3256114,-0.07350325,0.8809737,-0.741424,-1134,1979,67
2446.016,2.830625,-9.021352,-1.503559,-0.5889736,-0.08628642,0.8948221,-0.7499462,-1195,2032,67
2446.02,2.834531,-9.284714,-1.853112,-0.9433155,-0.1225054,0.9076053,-0.7595335,-1141,2032,115
2446.023,2.838438,-9.524134,-1.982399,-1.134852,-0.1363538,0.9139969,-0.7637946,-1184,2085,66
2446.027,2.842344,-9.844957,-2.202666,-1.441309,-0.1555286,0.9278453,-0.7691209,-1128,2027,50
2446.031,2.84625,-10.01255,-2.303222,-1.604115,-0.1896171,0.938498,-0.7765778,-1148,1980,115
2446.035,2.850156,-10.39562,-2.37026,-1.752556,-0.2439456,0.9374327,-0.7765778,-1172,2026,113
2446.039,2.854063,-10.65899,-2.379836,-1.795651,-0.2716424,0.9331716,-0.777643,-1158,2061,102
2446.043,2.857969,-10.8601,-2.461239,-1.714248,-0.2972088,0.942759,-0.7744472,-1170,2041,67
2446.047,2.861875,-10.92714,-2.494758,-1.594538,-0.3185141,0.9512811,-0.7712515,-1155,1996,59
2446.051,2.865781,-11.04206,-2.533065,-1.517924,-0.350472,0.9470201,-0.7648599,-1112,2032,86
2446.055,2.869688,-11.06121,-2.552219,-1.316811,-0.3611246,0.9491506,-0.7584683,-1172,2023,100
2446.059,2.873594,-11.02769,-2.451662,-1.23062,-0.3547331,0.9523464,-0.753142,-1148,2060,4
2446.062,2.8775,-10.96066,-2.145205,-1.182736,-0.350472,0.9629991,-0.7456851,-1115,2073,55
2446.066,2.881406,-10.7787,-1.982399,-0.5075708,-0.3430151,0.9629991,-0.7243798,-1154,1987,35
2446.07,2.885313,-10.76912,-1.910573,-0.1867477,-0.3259709,0.9608685,-0.7020093,-1130,2032,75
2446.074,2.889219,-10.55364,-1.8579,-0.2681506,-0.3153183,0.9661948,-0.6870956,-1167,2003,59
2446.078,2.893125,-10.35253,-1.58975,0,-0.309992,0.9970875,-0.6934871,-1105,2031,68
2446.082,2.897031,-10.11311,-0.9624691,0.2537854,-0.3174488,1.050351,-0.7318367,-1166,2035,77
2446.086,2.900938,-10.07959,-0.4836287,0.4548983,-0.2961435,1.092961,-0.7542072,-1104,2031,70
2446.09,2.904844,-10.33816,-0.3064578,0.6895301,-0.2705772,1.134507,-0.7616641,-1108,2019,97
2446.094,2.90875,-10.91277,-0.1628057,0.7086837,-0.2450108,1.16753,-0.7552725,-1155,2070,79
2446.098,2.912656,-11.59272,0.1053449,0.7230489,-0.2428803,1.202684,-0.7850999,-1153,2051,55
2446.102,2.916563,-11.81778,0.7182605,1.034295,-0.257794,1.22825,-0.8415589,-1112,2049,77
2446.105,2.920469,-11.70765,1.508347,1.206678,-0.2854909,1.259143,-0.9097358,-1125,2020,61
2446.109,2.924375,-11.61188,2.231396,1.221043,-0.3046656,1.300688,-0.9693906,-1105,2029,94
2446.113,2.928281,-11.20486,2.614468,1.364695,-0.3174488,1.365669,-1.033307,-1157,2088,138
2446.117,2.932188,-10.85052,2.48997,1.125275,-0.3057309,1.423193,-1.080178,-1135,2099,77
2446.121,2.936094,-10.51533,2.116474,1.254562,-0.2759035,1.493501,-1.124919,-1141,2052,79
2446.125,2.94,-10.30464,1.49877,1.115698,-0.2332929,1.559547,-1.163269,-1133,2038,36
2446.129,2.943906,-10.13705,0.6991069,1.331176,-0.2119876,1.634116,-1.190966,-1122,2006,130
2446.133,2.947813,-10.60631,0.1915361,1.580173,-0.1310275,1.709749,-1.23038,-1172,2065,83
2446.137,2.951719,-10.76433,0.272939,1.015142,-0.1661813,1.757686,-1.262338,-1177,2031,91
2446.141,2.955625,-11.24796,0.2537854,1.393425,-0.1629855,1.832255,-1.290035,-1099,2085,61
2446.145,2.959531,-11.88482,0.01915361,1.771709,-0.108657,1.890844,-1.304949,-1182,2038,80
2446.148,2.963438,-12.53604,-0.3687071,1.58975,-0.108657,1.936651,-1.330515,-1139,2019,83
2446.152,2.967344,-12.90475,-0.1867477,1.599327,-0.1619202,1.97287,-1.381648,-1129,2102,96
2446.156,2.97125,-13.36922,0.1101333,1.805228,-0.2396845,2.002697,-1.42852,-1179,2081,87
2446.16,2.975156,-13.74751,0.3064578,1.604115,-0.3025351,2.028263,-1.465804,-1139,2087,29
2446.164,2.979063,-14.01087,0.5506664,1.623269,-0.386691,2.059156,-1.52972,-1135,2047,81
2446.168,2.982969,-14.03002,0.4884171,2.044648,-0.4623248,2.093245,-1.578722,-1149,2063,122
2446.172,2.986875,-14.09706,0.4405331,2.25055,-0.5294364,2.124137,-1.625594,-1150,2068,64
2446.176,2.990781,-14.10664,1.106121,1.651999,-0.6327671,2.129464,-1.675661,-1140,2089,75
2446.18,2.994688,-13.97735,1.896208,1.388637,-0.7701862,2.185923,-1.726794,-1077,2098,64
2446.184,2.998594,-14.28381,1.723825,2.116474,-0.7819041,2.232794,-1.723598,-1146,2040,85
2446.188,3.0025,-14.64294,1.101333,2.322376,-0.7669904,2.27434,-1.71401,-1149,2118,88
2446.191,3.006406,-14.97334,0.2394202,3.342306,-0.7275756,2.356365,-1.733185,-1131,2045,101
2446.195,3.010313,-15.84961,-0.5027823,4.161122,-0.6274408,2.451173,-1.783253,-1189,2083,65
2446.199,3.014219,-17.10897,0.2154781,3.433285,-0.6231797,2.444782,-1.822667,-1108,2044,37
2446.203,3.018125,-18.31564,2.662352,3.830723,-0.721184,2.396845,-1.859952,-1090,2058,114
2446.207,3.022031,-19.23502,5.434838,4.022259,-0.8543421,2.33719,-1.864213,-1113,2047,131
2446.211,3.025938,-19.92455,7.891289,4.951209,-0.9757822,2.277535,-1.847169,-1141,2040,103
2446.215,3.029844,-20.04426,9.083601,6.0286,-1.099353,2.262622,-1.889779,-1127,2073,48
2446.219,3.03375,-20.42254,9.844957,6.995857,-1.276187,2.267948,-1.969674,-1156,2080,76
2446.223,3.037656,-20.95884,10.3621,8.30788,-1.484979,2.271144,-2.060221,-1142,2052,94
2446.227,3.041563,-21.83033,10.76912,9.998186,-1.807754,2.292449,-2.179531,-1121,2084,99
2446.23,3.045469,-22.73534,11.15698,10.92235,-2.07407,2.293514,-2.23599,-1176,2115,131
2446.234,3.049375,-23.82231,11.97101,10.6111,-2.382997,2.251969,-2.249838,-1176,2055,59
2446.238,3.053281,-24.41607,12.21043,11.71722,-2.657835,2.213619,-2.209358,-1159,2092,72
2446.242,3.057188,-23.96596,10.92235,11.53526,-2.846387,2.130529,-2.083657,-1102,2047,97
2446.246,3.061094,-21.85906,8.848969,9.437943,-2.956109,2.016546,-1.998436,-1149,2070,119
2446.25,3.065,-18.46887,7.000646,6.737283,-3.037069,1.933455,-1.950499,-1155,2087,142
2446.254,3.068906,-14.72434,4.912902,2.667141,-3.078614,1.913215,-1.924933,-1171,2079,64
2446.258,3.072813,-10.4483,0.866701,0.6560113,-2.995524,2.073005,-1.872735,-1113,2126,66
2446.262,3.076719,-8.796297,-4.778827,-3.313575,-2.84106,2.391519,-1.807754,-1105,2055,142
2446.266,3.080625,-8.394071,-7.599196,-2.576161,-2.799515,2.649313,-1.759817,-1146,2096,129
2446.27,3.084531,-9.021352,-8.719682,-0.320823,-2.870888,2.84106,-1.750229,-1154,2132,117
2446.273,3.088438,-10.71166,-8.408436,-1.623269,-3.045591,2.950782,-1.79284,-1152,2075,74
2446.277,3.092344,-13.77624,-7.493851,-7.153875,-3.357714,3.070092,-1.841842,-1131,2085,116
2446.281,3.09625,-16.65886,-7.278373,-6.794744,-3.467436,3.185141,-1.832255,-1135,2071,116
2446.285,3.100156,-19.9006,-7.450756,-6.694188,-3.539874,3.227751,-1.725728,-1144,2076,89
2446.289,3.104063,-22.5869,-8.815451,-5.837064,-3.518568,3.193663,-1.502023,-1140,2101,159
2446.293,3.107969,-24.09046,-11.21923,-5.468357,-3.229882,2.98061,-1.188835,-1161,2099,111
2446.297,3.111875,-22.67788,-12.56956,-5.109226,-2.914563,2.691923,-1.037568,-1088,2085,95
2446.301,3.115781,-19.50317,-12.42112,-6.368576,-2.648247,2.394714,-0.9619338,-1128,2083,113
2446.305,3.119688,-15.75864,-10.85052,-8.437167,-2.567287,2.141182,-0.9086706,-1189,2085,96
2446.309,3.123594,-11.39161,-8.719682,-9.112332,-2.481001,1.888714,-0.7691209,-1150,2109,76
2446.312,3.1275,-10.12268,-6.421249,-10.80264,-2.218946,1.747034,-0.6306365,-1168,2113,96
2446.316,3.131406,-10.08917,-4.860229,-11.48259,-1.915345,1.670335,-0.5006743,-1159,2103,42
2446.32,3.135313,-10.45787,-3.873818,-12.09551,-1.544633,1.603223,-0.3728426,-1132,2088,107
2446.324,3.139219,-10.55364,-4.611232,-11.90397,-1.097222,1.483913,-0.1917476,-1164,2116,144
2446.328,3.143125,-10.15142,-6.0286,-11.4778,-0.8159926,1.362473,-0.07882957,-1160,2122,110
2446.332,3.147031,-9.763554,-7.876923,-12.25352,-0.700944,1.182444,-0.03728426,-1191,2123,68
2446.336,3.150938,-9.414001,-10.37168,-10.51055,-0.7062703,0.9885654,-0.09480853,-1112,2096,103
2446.34,3.154844,-9.131485,-11.99495,-7.943961,-0.5507417,0.6359629,-0.3270362,-1135,2045,71
2446.344,3.15875,-8.987833,-11.59751,-7.125144,-0.3014698,0.3749731,-0.5209143,-1167,2135,140
2446.348,3.162656,-8.561665,-10.39562,-6.100426,0.005326322,0.1778992,-0.660464,-1197,2108,113
2446.352,3.166563,-8.279149,-8.863335,-5.525817,0.366451,0.003195793,-0.7403588,-1172,2145,55
2446.355,3.170469,-7.881712,-7.302315,-4.850653,0.8767126,-0.1661813,-0.7392935,-1140,2082,67
2446.359,3.174375,-7.225701,-6.742072,-5.080496,1.196292,-0.2503371,-0.6625945,-1158,2090,138
2446.363,3.178281,-6.382942,-6.311116,-5.559336,1.48924,-0.3632552,-0.5581986,-1191,2099,119
2446.367,3.182188,-5.372589,-6.258443,-5.228936,1.750229,-0.4474111,-0.4612595,-1156,2109,118
2446.371,3.186094,-3.902549,-6.047753,-4.79798,2.030394,-0.5390238,-0.3952131,-1148,2146,68
2446.375,3.19,-3.112462,-5.281609,-4.491522,2.159291,-0.6988135,-0.3419499,-1147,2093,106
2446.379,3.193906,-2.604891,-4.616021,-4.180276,2.228533,-0.8064052,-0.2972088,-1141,2117,123
2446.383,3.197813,-2.27928,-4.070143,-3.998317,2.248773,-0.9214537,-0.2471413,-1171,2072,73
2446.387,3.201719,-2.06859,-3.797204,-3.696647,2.232794,-1.036502,-0.1917476,-1139,2096,127
2446.391,3.205625,-1.958457,-3.643975,-3.136404,2.148638,-1.180313,-0.112918,-1141,2120,65
2446.395,3.209531,-1.934515,-3.591302,-2.906561,2.045308,-1.336907,-0.05539375,-1130,2058,90
2446.398,3.213438,-1.80044,-3.409343,-2.614468,1.890844,-1.469,0.004261058,-1095,2077,119
2446.402,3.217344,-1.570596,-3.122039,-2.202666,1.707619,-1.605354,0.06711166,-1119,2122,100
2446.406,3.22125,-1.244985,-2.446874,-1.891419,1.457282,-1.794971,0.1619202,-1139,2128,155
2446.41,3.225156,-0.9433155,-1.790863,-1.8579,1.262338,-1.930259,0.2503371,-1167,2144,94
2446.414,3.229063,-0.7038953,-1.192312,-1.824382,1.096157,-2.066613,0.3483415,-1112,2103,60
2446.418,3.232969,-0.4932055,-0.6464344,-1.853112,0.9832391,-2.181662,0.4484763,-1143,2087,102
2446.422,3.236875,-0.4070143,0.08140286,-1.900996,0.90654,-2.315885,0.5901565,-1186,2064,119
2446.426,3.240781,-0.4596867,0.296881,-1.996764,0.8990832,-2.41815,0.6977482,-1171,2098,116
2446.43,3.244688,-0.4213795,0.3830723,-2.274492,0.9161274,-2.488458,0.7968178,-1114,2121,72
2446.434,3.248594,-0.4165911,0.03830723,-2.528277,0.9480853,-2.549178,0.8735168,-1089,2129,73
2446.438,3.2525,-0.5171476,-0.7230489,-2.767697,0.9864349,-2.615224,0.938498,-1120,2071,150
2446.441,3.256406,-0.6751649,-1.283292,-2.863465,1.006675,-2.659965,0.9768475,-1164,2084,108
2446.445,3.260313,-0.8858546,-1.82917,-3.007117,1.030111,-2.718555,1.004544,-1128,2116,51
2446.449,3.264219,-1.005565,-2.049437,-2.983175,1.067395,-2.782471,1.036502,-1131,2112,80
2446.453,3.268125,-1.335965,-2.25055,-2.935291,1.114267,-2.895389,1.097222,-1091,2077,70
2446.457,3.272031,-1.532289,-2.384625,-2.829946,1.12705,-3.001915,1.153681,-1119,2051,94
2446.461,3.275938,-1.685518,-2.542642,-2.844312,1.102549,-3.105246,1.229315,-1142,2089,164
2446.465,3.279844,-1.786074,-2.8491,-2.882619,1.04609,-3.213903,1.306014,-1137,2136,101
2446.469,3.28375,-1.752556,-3.078943,-2.983175,0.9353022,-3.376888,1.398692,-1144,2126,54
2446.473,3.287656,-1.632846,-3.007117,-3.011906,0.8351673,-3.480219,1.463673,-1132,2022,99
2446.477,3.291563,-1.455675,-2.695871,-3.107674,0.753142,-3.587811,1.524393,-1118,2088,111
2446.48,3.295469,-1.316811,-2.260126,-3.122039,0.6902914,-3.68688,1.588309,-1146,2074,105
2446.484,3.299375,-1.067814,-1.867477,-3.217807,0.6348976,-3.805125,1.675661,-1172,2084,92
2446.488,3.303281,-0.9864111,-1.637634,-3.29921,0.6072007,-3.882889,1.733185,-1139,2082,75
2446.492,3.307188,-0.9959879,-1.623269,-3.332729,0.5752428,-3.948935,1.793905,-1088,2091,81
2446.496,3.311094,-1.182736,-1.723825,-3.366248,0.5379585,-4.013916,1.852495,-1136,2063,136
2446.5,3.315,-1.570596,-1.82917,-3.505111,0.4985438,-4.088485,1.915345,-1158,2080,99
2446.504,3.318906,-1.944092,-2.059013,-3.634398,0.4495416,-4.183293,2.01335,-1169,2084,76
2446.508,3.322813,-2.42772,-2.389413,-3.687071,0.4303668,-4.255731,2.093245,-1143,2090,99
2446.512,3.326719,-2.916138,-2.772486,-3.883395,0.4207795,-4.337757,2.174205,-1105,2033,71
2446.516,3.330625,-3.136404,-3.198653,-3.98874,0.4324974,-4.420847,2.239186,-1117,2042,92
2446.52,3.334531,-2.949656,-3.56736,-4.328717,0.4783037,-4.527374,2.312689,-1119,2049,110
2446.523,3.338438,-2.513912,-3.806781,-4.596867,0.5347627,-4.601942,2.369148,-1166,2057,86
2446.527,3.342344,-2.054225,-3.859453,-4.726154,0.5944176,-4.666923,2.441586,-1099,2061,68
2446.531,3.34625,-1.848324,-3.797204,-4.759673,0.6327671,-4.718056,2.53746,-1127,2049,103
2446.535,3.350156,-1.982399,-3.687071,-4.884171,0.6466155,-4.789429,2.69938,-1083,2027,124
2446.539,3.354063,-2.264915,-3.825934,-4.850653,0.6423545,-4.836301,2.829342,-1139,2082,112
2446.543,3.357969,-2.767697,-4.01747,-4.860229,0.6423545,-4.884237,2.952913,-1120,2050,98
2446.547,3.361875,-3.409343,-4.223372,-4.821922,0.6370281,-4.932174,3.048787,-1192,2069,50
2446.551,3.365781,-4.252102,-4.400543,-4.922479,0.628506,-5.000351,3.153183,-1112,2042,41
2446.555,3.369688,-4.841076,-4.491522,-4.941632,0.6412892,-5.051484,3.220294,-1119,2049,130
2446.559,3.373594,-5.410896,-4.477157,-4.946421,0.684965,-5.110073,3.287406,-1133,2030,128
2446.562,3.3775,-6.004658,-4.639963,-4.970363,0.7478156,-5.162271,3.347061,-1117,2053,66
2446.566,3.381406,-7.216124,-4.927267,-5.195418,0.8394284,-5.21873,3.42376,-1129,2055,41
2446.57,3.385313,-8.2169,-5.597643,-5.554548,0.8831042,-5.265602,3.477023,-1113,2013,69
2446.574,3.389219,-9.121908,-6.272808,-5.750872,0.8969527,-5.306082,3.531352,-1087,2033,104
2446.578,3.393125,-9.682152,-6.603208,-5.956774,0.8894958,-5.346562,3.594202,-1146,1987,120
2446.582,3.397031,-10.7356,-6.469133,-5.530606,0.8511463,-5.391303,3.70712,-1147,1993,61
2446.586,3.400938,-11.95185,-5.808333,-5.329493,0.8468852,-5.431783,3.794472,-1122,2034,62
2446.59,3.404844,-13.62301,-4.91769,-4.970363,0.8543421,-5.449893,3.873301,-1154,2007,50
2446.594,3.40875,-15.63893,-3.945644,-5.252878,0.8735168,-5.464807,3.938283,-1142,2014,92
2446.598,3.412656,-18.30607,-3.529053,-5.592855,0.8426242,-5.438175,3.992611,-1154,1974,106
2446.602,3.416563,-19.99637,-4.577714,-5.841852,0.777643,-5.391303,3.965979,-1154,2047,56
2446.605,3.420469,-20.83434,-5.995081,-6.052542,0.7020093,-5.333779,3.818973,-1117,2016,26
2446.609,3.424375,-20.67633,-6.943185,-5.880159,0.6519418,-5.241101,3.625095,-1104,1987,24
2446.613,3.428281,-20.87265,-7.680599,-5.434838,0.700944,-5.1154,3.559048,-1164,2011,74
2446.617,3.432188,-21.44726,-8.441955,-5.434838,0.8522115,-5.042962,3.695402,-1192,2019,70
2446.621,3.436094,-21.31318,-8.724471,-5.439626,0.9193232,-4.979046,3.837082,-1168,2022,53
2446.625,3.44,-20.33635,-7.364564,-4.951209,0.8309063,-4.900216,3.865845,-1118,1998,37
2446.629,3.443906,-19.43613,-5.090073,-5.597643,0.6583334,-4.764928,3.811516,-1108,2037,41
2446.633,3.447813,-19.22065,-4.050989,-4.46758,0.4783037,-4.460262,3.668771,-1195,2001,94
2446.637,3.451719,-19.13925,-4.668693,-4.352659,0.366451,-4.239752,3.512177,-1191,1979,41
2446.641,3.455625,-18.64125,-5.305551,-4.429273,0.2258361,-4.007525,3.28421,-1174,2036,75
2446.645,3.459531,-17.47767,-5.430049,-4.793192,0.09693906,-3.783819,3.005111,-1177,1981,44
2446.648,3.463438,-15.35162,-5.568913,-5.243302,0.04474111,-3.457848,2.646117,-1112,1965,30
2446.652,3.467344,-13.44584,-6.402095,-5.621585,0.0809601,-3.187271,2.390453,-1146,1983,50
2446.656,3.47125,-11.34852,-7.824251,-6.114791,0.1778992,-2.924151,2.161422,-1180,1996,69
2446.66,3.475156,-9.212888,-9.610325,-6.560113,0.3057309,-2.673814,1.963282,-1171,2013,78
2446.664,3.479063,-6.785168,-11.83693,-7.733271,0.4644553,-2.369148,1.708684,-1168,2013,49
2446.668,3.482969,-5.449203,-12.61744,-8.513781,0.5571333,-2.164617,1.494566,-1146,1967,32
2446.672,3.486875,-4.505888,-12.33972,-9.399636,0.6530071,-1.979261,1.252751,-1143,2007,92
2446.676,3.490781,-3.643975,-11.46344,-10.07959,0.7339672,-1.769404,0.958738,-1191,2000,82
2446.68,3.494688,-2.585738,-9.964667,-9.198523,0.809601,-1.442368,0.4772385,-1179,2005,114
2446.684,3.498594,-2.015918,-8.738836,-8.149862,0.8490158,-1.159008,0.07669904,-1162,2027,54
2446.688,3.5025,-1.771709,-7.192182,-7.034164,0.8564726,-0.8490158,-0.3238404,-1117,1966,10
2446.691,3.506406,-2.054225,-5.3678,-6.186617,0.7914915,-0.5017395,-0.6977482,-1156,1961,62
2446.695,3.510313,-3.222595,-2.906561,-5.707777,0.6029397,-0.02450108,-1.131311,-1177,1976,63
2446.699,3.514219,-4.304775,-1.364695,-6.17704,0.4538026,0.314253,-1.380583,-1205,2044,48
2446.703,3.518125,-5.00867,-0.8092402,-6.50744,0.3920173,0.6583334,-1.559547,-1169,2042,53
2446.707,3.522031,-5.252878,-1.446098,-7.058106,0.3802994,0.9672601,-1.684183,-1162,2000,1
2446.711,3.525938,-4.745308,-3.768473,-7.603984,0.3834952,1.343298,-1.814145,-1134,1997,94
2446.715,3.529844,-4.103662,-5.391742,-7.575254,0.4079963,1.597897,-1.929194,-1173,1984,77
2446.719,3.53375,-4.323928,-5.650316,-7.19697,0.4612595,1.800297,-2.059156,-1188,2049,74
2446.723,3.537656,-5.334281,-5.363012,-2.523489,0.6551376,1.959021,-2.179531,-1162,2087,55
2446.727,3.541563,-8.968679,-3.035848,4.630386,1.095092,2.099636,-2.329733,-1130,2060,8
2446.73,3.545469,-14.88715,0.2059013,17.64048,1.677791,2.128398,-2.461826,-1146,2018,54
2446.734,3.549375,-27.40882,6.83784,26.62352,2.447978,2.078331,-2.502306,-1184,1987,62
2446.738,3.553281,-47.01254,21.92131,11.67413,2.767557,1.644768,-2.070874,-1172,2042,79
2446.742,3.557188,-54.09459,28.91717,-0.4070143,3.619769,1.484979,-0.4037352,-1181,2043,37
2446.746,3.561094,-36.43017,3.969586,-7.838616,5.698099,1.272991,0.556068,-1135,1998,20
2446.75,3.565,-15.06432,-14.34127,-11.02769,7.548464,1.358212,0.7147924,-1168,1978,51
2446.754,3.568906,-7.273585,-15.63893,-12.74673,8.261126,1.234641,0.5390238,-1148,1980,57
2446.758,3.572813,-9.92636,-7.431602,-13.34049,5.446697,0.9779128,0.1342233,-1183,2048,73
2446.762,3.576719,-8.06846,10.48181,-6.952762,-0.406931,0.9395632,-0.9598033,-1156,2037,30
2446.766,3.580625,-1.154005,34.77817,-4.611232,-0.7478156,1.38804,-1.908954,-1127,2020,56
2446.77,3.584531,-1.096544,60.09446,-14.62857,0.7914915,2.266883,-2.713229,-1130,2007,116
2446.773,3.588438,-14.21198,56.04347,-5.894524,0.8841695,3.649596,-2.702576,-1166,1988,95
2446.777,3.592344,-20.07778,22.72576,7.129933,-2.099636,3.42589,-2.165683,-1145,2002,55
2446.781,3.59625,-14.619,5.894524,0.6081272,-3.255448,2.303102,-2.062352,-1208,2066,74
2446.785,3.600156,-9.361328,-1.398214,1.412579,-3.349191,2.152899,-2.343582,-1140,2022,27
2446.789,3.604063,-5.865794,-9.02614,6.799533,-2.827212,2.484197,-2.446912,-1140,1978,59
2446.793,3.607969,-4.074931,-20.37944,1.61848,-1.427454,2.949717,-2.307363,-1165,1985,107
2446.797,3.611875,-5.506664,-29.10392,-6.469133,-0.7094661,3.359844,-2.354234,-1175,1980,87
2446.801,3.615781,-8.140286,-37.10055,-10.09395,-0.4463458,3.332147,-2.51935,-1176,2006,36
2446.805,3.619688,-9.524134,-41.23294,-10.27591,-0.3366236,2.989132,-2.608833,-1127,2027,80
2446.809,3.623594,-9.59596,-40.73974,-9.907206,-0.2428803,2.319081,-2.833603,-1109,1995,76
2446.812,3.6275,-10.22803,-37.00478,-12.16254,-0.04687164,2.133725,-3.334278,-1174,1998,76
2446.816,3.631406,-8.303091,-28.81182,-13.85285,0.6359629,2.027198,-3.7476,-1138,2044,101
2446.82,3.635313,-3.064578,-20.2741,-14.70519,1.699097,1.712945,-3.083941,-1167,2054,52
2446.824,3.639219,1.302446,-16.38592,-13.24951,2.87941,1.260208,-1.467934,-1128,2046,47
2446.828,3.643125,-1.173159,-13.30697,-10.76433,3.360909,1.114267,-1.107875,-1138,2008,51
2446.832,3.647031,-5.693412,-5.262455,-5.904101,3.673032,1.024784,-1.355016,-1169,2031,63
2446.836,3.650938,-7.503428,-1.417367,-3.74932,3.678358,0.9459548,-1.432781,-1179,2063,54
2446.84,3.654844,-11.34852,6.660669,-2.054225,3.430151,0.7946873,-1.307079,-1166,2055,34
2446.844,3.65875,-14.17367,12.61744,-3.663129,3.00298,0.9203885,-1.080178,-1127,2019,34
2446.848,3.662656,-16.70674,15.0308,-3.955221,2.325472,1.065264,-0.7882957,-1111,1997,29
2446.852,3.666563,-16.95095,11.3964,-2.657564,1.328385,1.014132,-0.4569984,-1073,2024,75
2446.855,3.670469,-13.03403,3.969586,-1.369483,-0.4900216,0.721184,-0.3281014,-1177,2067,83
2446.859,3.674375,-9.399636,2.384625,-1.11091,-1.79284,0.5816344,-0.427171,-1127,2045,78
2446.863,3.678281,-7.52737,3.078943,-1.666364,-2.675944,0.5709817,-0.4942827,-1103,2029,32
2446.867,3.682188,-6.943185,2.537854,-2.585738,-3.031743,0.6764429,-0.4900216,-1119,1988,45
2446.871,3.686094,-7.283161,-0.08140286,-4.118027,-2.887932,0.8564726,-0.5091964,-1108,2015,72
2446.875,3.69,-7.963115,-3.945644,-4.592079,-2.359561,1.096157,-0.588026,-1160,2087,111
2446.879,3.693906,-9.141062,-6.272808,-3.998317,-1.968609,1.188835,-0.6072007,-1112,1997,17
2446.883,3.697813,-10.82658,-8.896853,-3.529053,-1.636246,1.155812,-0.4985438,-1151,2037,80
2446.887,3.701719,-11.4395,-10.20888,-3.706224,-1.360343,1.04822,-0.4335626,-1113,2020,43
2446.891,3.705625,-11.67413,-11.84172,-4.185065,-1.04822,0.8799084,-0.3792341,-1093,2043,75
2446.895,3.709531,-10.99896,-11.70765,-4.252102,-0.8554073,0.757403,-0.4388889,-1136,2060,63
2446.898,3.713438,-10.50576,-10.36689,-4.218583,-0.6870956,0.6562029,-0.5411543,-1173,2023,39
2446.902,3.717344,-10.44351,-8.499416,-4.074931,-0.495348,0.5784386,-0.6231797,-1109,1996,76
2446.906,3.72125,-10.93192,-6.301539,-3.620033,-0.1757686,0.5166533,-0.6817692,-1134,1975,77
2446.91,3.725156,-11.39161,-5.15711,-3.055001,0.0479369,0.479369,-0.7382283,-1134,2048,74
2446.914,3.729063,-11.65019,-3.993528,-2.346318,0.2237055,0.4538026,-0.7904262,-1146,2048,68
2446.918,3.732969,-11.63103,-2.786851,-1.690306,0.3696468,0.427171,-0.813862,-1175,2036,20
2446.922,3.736875,-11.18092,-1.833958,-1.192312,0.5826996,0.3813647,-0.7595335,-1132,2035,93
2446.926,3.740781,-10.74039,-2.06859,-1.005565,0.7605988,0.3515373,-0.6881608,-1120,2012,91
2446.93,3.744688,-10.29986,-2.667141,-0.7517793,0.8969527,0.3185141,-0.6306365,-1100,1997,109
2446.934,3.748594,-9.988609,-2.858677,-0.4932055,0.9331716,0.2961435,-0.5795039,-1165,2037,92
2446.938,3.7525,-9.691728,-2.097321,-0.06224924,0.7701862,0.2524677,-0.4783037,-1130,2048,72
2446.941,3.756406,-9.466673,-1.16837,0.2442086,0.5305017,0.2173139,-0.3696468,-1093,2061,62
2446.945,3.760313,-9.14585,-0.4309563,0.6895301,0.2588593,0.2034655,-0.2663161,-1103,1984,65
2446.949,3.764219,-8.5473,0.009576807,1.029507,-0.01171791,0.201335,-0.1789644,-1109,1995,95
2446.953,3.768125,-7.661445,-0.1532289,1.225831,-0.3579289,0.2269013,-0.1225054,-1127,1994,106
2446.957,3.772031,-7.086837,-0.6033388,1.398214,-0.5848302,0.2609898,-0.1416802,-1148,2034,51
2446.961,3.775938,-6.92882,-0.7565677,1.374272,-0.7755125,0.298274,-0.1885518,-1124,2015,65
2446.965,3.779844,-7.393295,-0.617704,1.173159,-0.9097358,0.3323625,-0.2386192,-1083,1995,45
2446.969,3.78375,-8.566454,-1.072602,0.7613561,-0.902279,0.3728426,-0.2748382,-1146,2003,121
2446.973,3.787656,-9.184158,-2.102109,0.6129156,-0.7797736,0.3824299,-0.2641856,-1143,2006,60
2446.977,3.791563,-9.519346,-3.438074,0.5506664,-0.6540724,0.3760383,-0.2279666,-1140,2051,55
2446.98,3.795469,-9.797073,-4.410119,0.4213795,-0.5805691,0.366451,-0.1981392,-1155,2019,28
2446.984,3.799375,-10.03649,-4.826711,0.03830723,-0.5305017,0.350472,-0.205596,-1116,2008,63
2446.988,3.803281,-10.15142,-4.175488,-0.2394202,-0.4910869,0.3281014,-0.2354234,-1159,1984,61
2446.992,3.807188,-10.22803,-3.280056,-0.4788403,-0.4314321,0.3025351,-0.2663161,-1120,2004,81
2446.996,3.811094,-10.29507,-2.547431,-0.5171476,-0.3312972,0.2886867,-0.2844256,-1137,2049,59
2447,3.815,-10.30943,-2.27928,-0.5985504,-0.1938781,0.2897519,-0.2822951,-1105,2069,41
2447.004,3.818906,-10.22324,-2.298434,-0.593762,-0.01597897,0.2769688,-0.2822951,-1113,2011,39
2447.008,3.822813,-10.06522,-2.298434,-0.545878,0.05432849,0.2695119,-0.3057309,-1125,2031,87
2447.012,3.826719,-9.92636,-1.666364,-0.4022259,0.06498113,0.2556635,-0.3398194,-1179,2008,109
2447.016,3.830625,-9.720459,-0.5602432,-0.1963245,0.02663161,0.2524677,-0.3621899,-1139,2028,102
2447.02,3.834531,-9.572018,0.9911995,0.1053449,-0.0628506,0.2567287,-0.366451,-1099,2028,72
2447.023,3.838438,-9.481039,1.810016,0.4405331,-0.1299623,0.2663161,-0.3515373,-1122,1990,86
2447.027,3.842344,-9.32781,2.087744,0.617704,-0.2183792,0.2865561,-0.330232,-1107,2034,129
2447.031,3.84625,-8.99741,1.872266,0.8044518,-0.3121225,0.3046656,-0.3174488,-1124,2010,93
2447.035,3.850156,-8.767566,1.254562,1.010353,-0.4250405,0.3472762,-0.3334278,-1143,2025,104
2447.039,3.854063,-8.609549,0.7709329,1.134852,-0.4846953,0.3749731,-0.370712,-1172,2061,60
2447.043,3.857969,-8.556877,0.3112462,1.163582,-0.5209143,0.4048005,-0.4090615,-1141,1991,30
2447.047,3.861875,-8.66701,-0.1436521,1.35033,-0.5305017,0.4378237,-0.4388889,-1142,2019,98
2447.051,3.865781,-8.75799,-0.7230489,1.527501,-0.5219796,0.479369,-0.46339,-1099,1978,97
2447.055,3.869688,-8.810662,-1.067814,1.642422,-0.5070659,0.4974785,-0.4804343,-1138,2054,77
2447.059,3.873594,-8.734048,-1.340753,1.656788,-0.4729774,0.5230448,-0.5017395,-1115,1989,59
2447.062,3.8775,-8.719682,-1.527501,1.733402,-0.4293016,0.5443501,-0.5230448,-1130,2000,84
2447.066,3.881406,-8.805874,-1.426944,1.675941,-0.3760383,0.588026,-0.5496764,-1087,2030,77
2447.07,3.885313,-8.705317,-1.216254,1.699883,-0.3440804,0.608266,-0.5613944,-1127,2040,90
2447.074,3.889219,-8.767566,-0.8762778,1.651999,-0.3217099,0.6199839,-0.5763081,-1099,2052,35
2447.078,3.893125,-8.781932,-0.5554548,1.604115,-0.2993393,0.6455502,-0.5869607,-1124,2025,18
2447.082,3.897031,-8.647856,-0.3878607,1.398214,-0.2812298,0.6764429,-0.6072007,-1148,1998,62
2447.086,3.900938,-8.671798,-0.4548983,0.866701,-0.2620551,0.7020093,-0.6253102,-1120,1987,100
2447.09,3.904844,-8.504204,-0.5315128,0.7805097,-0.2450108,0.7275756,-0.644485,-1150,2010,89
2447.094,3.90875,-8.5473,-0.4932055,0.5650316,-0.2567287,0.7456851,-0.6636597,-1108,2048,79
2447.098,3.912656,-8.590396,-0.4979939,-0.06703765,-0.2599245,0.7840346,-0.6785734,-1137,2032,58
2447.102,3.916563,-8.772355,-0.5602432,-0.3399766,-0.2556635,0.8106662,-0.6860303,-1095,1989,36
2447.105,3.920469,-8.963891,-0.7469909,-0.7326257,-0.2471413,0.829841,-0.6924219,-1124,2002,96
2447.109,3.924375,-9.323021,-0.9816227,-0.9720459,-0.2492719,0.8543421,-0.7062703,-1162,2009,87
2447.113,3.928281,-9.883264,-1.225831,-1.086968,-0.257794,0.8788432,-0.7275756,-1174,2037,73
2447.117,3.932188,-10.28549,-1.47004,-1.130063,-0.2759035,0.8926916,-0.7478156,-1125,2022,67
2447.121,3.936094,-10.67814,-1.58975,-1.211466,-0.2918825,0.8926916,-0.753142,-1090,1977,64
2447.125,3.94,-10.99417,-1.623269,-1.13964,-0.3217099,0.8948221,-0.7584683,-1098,2023,103
2447.129,3.943906,-11.09952,-1.604115,-0.9672575,-0.3653857,0.9001484,-0.7712515,-1135,2049,90
2447.133,3.947813,-11.16656,-1.316811,-0.8092402,-0.4378237,0.90654,-0.7989483,-1128,2052,89
2447.137,3.951719,-11.13783,-1.173159,-0.7422025,-0.4772385,0.9235843,-0.813862,-1095,2039,65
2447.141,3.955625,-10.96544,-1.201889,-0.56982,-0.4985438,0.9353022,-0.8213189,-1081,2014,57
2447.145,3.959531,-10.84573,-1.302446,-0.4692635,-0.4985438,0.9523464,-0.8191884,-1102,2019,59
2447.148,3.963438,-10.54885,-1.503559,-0.1340753,-0.4804343,0.9864349,-0.809601,-1121,2069,67
2447.152,3.967344,-10.30464,-1.565808,-0.2011129,-0.4580637,1.014132,-0.8000136,-1121,2073,94
2447.156,3.97125,-9.969456,-1.61848,-0.1628057,-0.4133226,1.041829,-0.793622,-1162,2026,58
2447.16,3.975156,-9.749189,-1.513135,0.2298434,-0.3589941,1.06633,-0.7882957,-1106,2007,63
2447.164,3.979063,-9.672575,-1.369483,0.5554548,-0.2812298,1.105744,-0.7819041,-1124,2011,121
2447.168,3.982969,-9.706094,-1.264138,0.842759,-0.2162487,1.145159,-0.7819041,-1143,2056,109
2447.172,3.986875,-9.830592,-1.221043,1.283292,-0.1555286,1.174987,-0.7914915,-1156,2082,60
2447.176,3.990781,-10.08917,-1.201889,1.561019,-0.1182444,1.200553,-0.8159926,-1117,2037,59
2447.18,3.994688,-10.63983,-0.794875,1.934515,-0.112918,1.235707,-0.8617989,-1092,2014,60
2447.184,3.998594,-11.05163,0.05746084,2.121263,-0.1416802,1.267665,-0.9097358,-1111,2023,93
2447.188,4.0025,-11.42034,1.091756,2.403778,-0.1906823,1.304949,-0.9629991,-1143,2070,109
2447.191,4.006406,-11.70765,1.805228,2.485181,-0.2439456,1.34969,-1.013066,-1172,2030,66
2447.195,4.010313,-11.62624,1.982399,3.150769,-0.2599245,1.421063,-1.073787,-1110,2038,70
2447.199,4.014219,-11.59272,2.154781,2.604891,-0.294013,1.456216,-1.122789,-1126,2021,44
2447.203,4.018125,-11.1474,1.910573,2.379836,-0.3419499,1.535046,-1.171791,-1114,2051,125
2447.207,4.022031,-10.80743,1.651999,2.499547,-0.3494067,1.613876,-1.221858,-1142,2042,103
2447.211,4.025938,-10.67335,0.9768343,2.154781,-0.3121225,1.709749,-1.253816,-1130,2043,86
2447.215,4.029844,-10.6542,0.641646,1.905785,-0.2705772,1.776861,-1.272991,-1089,2082,65
2447.219,4.03375,-10.78827,0.3974375,1.987187,-0.2620551,1.837581,-1.307079,-1167,2024,64
2447.223,4.037656,-11.17134,0.4118027,1.891419,-0.2609898,1.901497,-1.334776,-1114,2049,109
2447.227,4.041563,-11.79863,0.2442086,1.987187,-0.221575,1.979261,-1.357147,-1121,2006,119
2447.23,4.045469,-12.25352,0.1867477,1.594538,-0.221575,2.003762,-1.386974,-1173,2054,71
2447.234,4.049375,-12.68448,0.1675941,2.829946,-0.2407498,2.048504,-1.423193,-1102,2048,65
2447.238,4.053281,-13.22557,0.5746084,1.508347,-0.3291667,2.038916,-1.465804,-1091,2036,50
2447.242,4.057188,-13.5847,0.9241618,1.733402,-0.4037352,2.093245,-1.506284,-1137,2031,136
2447.246,4.061094,-13.6661,1.436521,1.790863,-0.5241101,2.130529,-1.576591,-1150,2057,108
2447.25,4.065,-14.01566,1.982399,1.532289,-0.6008091,2.151834,-1.616006,-1153,2053,70
2447.254,4.068906,-14.02044,2.169147,0.8379706,-0.6764429,2.167813,-1.640507,-1053,2082,65
2447.258,4.072813,-13.92947,2.365471,1.278504,-0.8010789,2.204032,-1.678857,-1099,2039,96
2447.262,4.076719,-14.29338,2.681506,1.833958,-0.9459548,2.23599,-1.729989,-1138,2025,132
2447.266,4.080625,-14.48971,3.830723,1.154005,-1.091896,2.213619,-1.773665,-1146,2055,109
2447.27,4.084531,-14.34127,4.922479,0.6607997,-1.249555,2.241316,-1.819472,-1133,2080,42
2447.273,4.088438,-14.63815,5.645528,1.039084,-1.365669,2.261556,-1.845038,-1089,2075,72
2447.277,4.092344,-15.16966,5.880159,1.489193,-1.499892,2.287123,-1.838646,-1118,2042,69
2447.281,4.09625,-15.44739,5.410896,2.633622,-1.582983,2.33506,-1.85143,-1144,2065,115
2447.285,4.100156,-16.11777,4.668693,4.027047,-1.634116,2.41602,-1.883388,-1132,2059,98
2447.289,4.104063,-17.5064,4.400543,3.624821,-1.712945,2.465022,-1.917476,-1105,2086,108
2447.293,4.107969,-19.92933,7.029376,4.788403,-1.986718,2.437325,-1.95476,-1126,2051,98
2447.297,4.111875,-21.62443,10.13226,6.138733,-2.245577,2.414954,-1.95476,-1101,2054,89
2447.301,4.115781,-23.1663,12.56956,7.149086,-2.400041,2.409628,-1.919607,-1085,2074,129
2447.305,4.119688,-23.93723,13.45541,8.686164,-2.477805,2.409628,-1.886583,-1126,2072,113
2447.309,4.123594,-24.1958,13.23994,10.36689,-2.530003,2.392584,-1.908954,-1152,2076,92
2447.312,4.1275,-23.88456,12.30141,10.88883,-2.619485,2.362757,-1.955826,-1119,2110,63
2447.316,4.131406,-22.91251,10.50576,12.73715,-2.689793,2.325472,-1.997371,-1100,2042,160
2447.32,4.135313,-21.59091,8.269573,14.72913,-2.722816,2.288188,-2.01335,-1167,2046,130
2447.324,4.139219,-19.28769,6.698976,11.40598,-2.745186,2.147573,-1.97287,-1161,2102,126
2447.328,4.143125,-16.77857,5.631162,8.034941,-2.729207,2.057026,-1.918541,-1150,2103,104
2447.332,4.147031,-13.92468,3.873818,4.625598,-2.614159,2.028263,-1.837581,-1109,2108,69
2447.336,4.150938,-11.09473,0.2537854,2.097321,-2.325472,2.139051,-1.726794,-1103,2072,115
2447.34,4.154844,-8.552088,-5.72693,-1.268927,-1.87167,2.441586,-1.602158,-1136,2052,144
2447.344,4.15875,-8.293515,-8.643068,-3.021482,-1.676726,2.792058,-1.540372,-1162,2068,130
2447.348,4.162656,-9.35654,-9.935937,-0.8283938,-1.59044,2.855974,-1.522263,-1143,2107,81
2447.352,4.166563,-11.49696,-9.763554,0.7469909,-1.809884,2.969957,-1.512675,-1103,2112,57
2447.355,4.170469,-14.85842,-8.781932,-3.86903,-2.120941,3.049852,-1.527589,-1125,2058,107
2447.359,4.174375,-17.73625,-8.33661,-7.220912,-2.19551,3.149987,-1.558482,-1135,2081,119
2447.363,4.178281,-20.59492,-8.475474,-6.775591,-2.27647,3.22136,-1.578722,-1167,2092,115
2447.367,4.182188,-22.81195,-9.121908,-5.659893,-2.212554,3.237339,-1.473261,-1150,2089,62
2447.371,4.186094,-23.77442,-10.4052,-5.382165,-2.079396,3.110572,-1.259143,-1124,2138,87
2447.375,4.19,-22.28523,-12.81377,-4.577714,-1.819472,2.794189,-0.9875001,-1123,2058,131
2447.379,4.193906,-19.30205,-13.21599,-4.726154,-1.677791,2.498045,-0.9150622,-1154,2087,79
2447.383,4.197813,-15.9789,-12.29183,-6.138733,-1.634116,2.266883,-0.8831042,-1130,2098,119
2447.387,4.201719,-13.35007,-10.21845,-9.069236,-1.678857,2.092179,-0.8213189,-1131,2103,97
2447.391,4.205625,-11.4395,-7.915231,-10.62068,-1.568069,1.923868,-0.6317018,-1146,2069,109
2447.395,4.209531,-11.2719,-6.756437,-12.58871,-1.376322,1.827994,-0.4410195,-1101,2050,123
2447.398,4.213438,-11.6023,-6.737283,-13.98693,-1.083374,1.783253,-0.2535329,-1204,2131,102
2447.402,4.217344,-12.06199,-7.694964,-13.63258,-0.7467504,1.731055,-0.09693906,-1179,2146,97
2447.406,4.22125,-12.3445,-9.457097,-12.49294,-0.2908172,1.513741,0.03621899,-1169,2111,79
2447.41,4.225156,-11.94707,-10.57279,-12.62223,-0.1075917,1.301753,0.03728426,-1113,2088,105
2447.414,4.229063,-11.45865,-11.69807,-10.62547,-0.05326322,1.074852,-0.07989483,-1112,2054,120
2447.418,4.232969,-10.9415,-12.19127,-7.173028,0.06072007,0.7787083,-0.2908172,-1159,2096,133
2447.422,4.236875,-10.30943,-10.63504,-4.395754,0.3430151,0.3483415,-0.5805691,-1181,2100,111
2447.426,4.240781,-9.77792,-8.269573,-4.520253,0.5912218,0.08948221,-0.7020093,-1109,2072,132
2447.43,4.244688,-9.016563,-6.464344,-4.362235,0.8053399,-0.06391587,-0.7329019,-1084,2030,58
2447.434,4.248594,-8.303091,-5.257667,-3.974375,1.034372,-0.1715076,-0.7030745,-1121,2080,134
2447.438,4.2525,-7.393295,-4.683058,-3.495534,1.285774,-0.2993393,-0.6125271,-1129,2076,104
2447.441,4.256406,-6.59842,-4.850653,-3.289633,1.400823,-0.3994742,-0.5305017,-1130,2103,133
2447.445,4.260313,-5.631162,-5.238513,-3.131616,1.462608,-0.4857606,-0.4506069,-1155,2125,98
2447.449,4.264219,-4.683058,-5.602432,-2.959233,1.478587,-0.5848302,-0.3877563,-1103,2073,137
2447.453,4.268125,-3.524265,-5.928043,-2.916138,1.444499,-0.7318367,-0.3046656,-1081,2087,126
2447.457,4.272031,-2.762909,-6.009446,-2.844312,1.370995,-0.8277105,-0.2407498,-1157,2105,142
2447.461,4.275938,-2.284068,-6.162675,-2.806004,1.267665,-0.9406285,-0.1736381,-1136,2143,106
2447.465,4.279844,-1.958457,-6.502652,-2.600103,1.163269,-1.064199,-0.1161138,-1142,2117,96
2447.469,4.28375,-1.68073,-6.59842,-2.389413,1.04609,-1.215467,-0.05219796,-1131,2071,76
2447.473,4.287656,-1.656788,-6.517017,-2.078167,0.974717,-1.351821,-0.01065264,-1103,2084,143
2447.477,4.291563,-1.527501,-6.220136,-1.604115,0.9257148,-1.483913,0.04154531,-1141,2107,150
2447.48,4.295469,-1.599327,-5.765238,-1.244985,0.870321,-1.631985,0.1097222,-1142,2113,163
2447.484,4.299375,-1.637634,-5.12838,-1.216254,0.7605988,-1.845038,0.2151834,-1172,2119,86
2447.488,4.303281,-1.728614,-3.974375,-1.067814,0.648746,-2.000567,0.3067962,-1115,2108,133
2447.492,4.307188,-1.8579,-2.834735,-0.9097966,0.5795039,-2.148638,0.4133226,-1111,2078,122
2447.496,4.311094,-1.795651,-1.728614,-0.8714894,0.5688512,-2.288188,0.5454154,-1182,2124,122
2447.5,4.315,-1.584961,-0.9097966,-0.9816227,0.5848302,-2.423477,0.680704,-1123,2149,108
2447.504,4.318906,-1.268927,-0.56982,-1.130063,0.5976133,-2.535329,0.8159926,-1161,2116,79
2447.508,4.322813,-0.9481039,-0.7422025,-1.091756,0.5890912,-2.594984,0.8799084,-1101,2079,104
2447.512,4.326719,-0.9289502,-0.9241618,-1.283292,0.531567,-2.653574,0.9374327,-1110,2040,106
2447.516,4.330625,-0.9433155,-1.039084,-1.503559,0.4346279,-2.720685,1.020523,-1142,2044,132
2447.52,4.334531,-1.101333,-1.211466,-1.704672,0.3249057,-2.831473,1.163269,-1208,2098,139
2447.523,4.338438,-1.206678,-1.393425,-1.886631,0.278034,-2.928412,1.287905,-1142,2135,137
2447.527,4.342344,-1.551443,-1.728614,-2.140416,0.2684466,-3.02322,1.40828,-1081,2082,81
2447.531,4.34625,-1.742979,-2.422932,-2.432509,0.2684466,-3.108442,1.508414,-1109,2034,117
2447.535,4.350156,-1.900996,-3.323152,-2.762909,0.2439456,-3.225621,1.575526,-1139,2070,136
2447.539,4.354063,-1.968034,-3.825934,-3.031059,0.1992044,-3.311907,1.591505,-1122,2097,105
2447.543,4.357969,-1.900996,-3.993528,-3.222595,0.1544633,-3.396063,1.59257,-1141,2100,70
2447.547,4.361875,-1.685518,-3.902549,-3.32794,0.1427454,-3.48661,1.595766,-1139,2118,96
2447.551,4.365781,-1.431733,-3.557784,-3.409343,0.1757686,-3.613377,1.628789,-1167,2067,108
2447.555,4.369688,-1.177947,-3.318364,-3.457227,0.2269013,-3.696468,1.675661,-1116,2062,113
2447.559,4.373594,-1.024718,-3.035848,-3.524265,0.2918825,-3.781689,1.743838,-1189,2085,127
2447.562,4.3775,-0.9241618,-2.825158,-3.533842,0.350472,-3.861584,1.829059,-1139,2068,109
2447.566,4.381406,-0.794875,-2.796428,-3.586514,0.4111921,-3.94787,1.959021,-1090,2090,50
2447.57,4.385313,-0.9289502,-2.944868,-3.552995,0.4474111,-4.019243,2.065548,-1119,2062,132
2447.574,4.389219,-1.307234,-3.222595,-3.643975,0.4655206,-4.083159,2.171009,-1166,2040,103
2447.578,4.393125,-1.795651,-3.5099,-3.725378,0.4921522,-4.14814,2.244512,-1162,2098,141
2447.582,4.397031,-2.705448,-3.74932,-3.955221,0.5592638,-4.234426,2.321211,-1161,2094,68
2447.586,4.400938,-3.394978,-4.156334,-4.175488,0.6402239,-4.316451,2.386192,-1088,2068,78
2447.59,4.404844,-3.782839,-4.764461,-4.553772,0.7510114,-4.428304,2.462891,-1130,2023,101
2447.594,4.40875,-3.648763,-5.315128,-4.965574,0.8873653,-4.531635,2.548113,-1152,2030,127
2447.598,4.412656,-2.96881,-5.645528,-5.310339,1.124919,-4.644553,2.650378,-1134,2059,149
2447.602,4.416563,-2.48997,-5.420473,-5.056554,1.304949,-4.704208,2.734534,-1121,2066,40
2447.605,4.420469,-2.245761,-4.951209,-4.644751,1.460478,-4.752145,2.846387,-1115,2058,91
2447.609,4.424375,-2.418144,-4.381389,-4.242525,1.54996,-4.794755,2.984871,-1068,2022,119
2447.613,4.428281,-2.983175,-3.902549,-3.96001,1.577657,-4.830974,3.121225,-1126,2024,138
2447.617,4.432188,-3.399766,-3.366248,-4.012682,1.510545,-4.87465,3.274623,-1170,2058,130
2447.621,4.436094,-3.806781,-3.366248,-4.31914,1.433846,-4.913,3.366236,-1182,2023,62
2447.625,4.44,-4.414908,-3.706224,-4.711789,1.393366,-4.941762,3.444,-1087,2039,92
2447.629,4.443906,-5.185841,-4.323928,-4.821922,1.342233,-4.963067,3.507916,-1107,2013,101
2447.633,4.447813,-6.71813,-4.788403,-5.185841,1.16753,-4.998221,3.549461,-1098,1993,107
2447.637,4.451719,-8.212112,-4.46758,-5.497087,1.018393,-5.026983,3.560114,-1152,2047,101
2447.641,4.455625,-9.730036,-3.964798,-6.033388,0.8809737,-5.068528,3.601659,-1161,1973,50
2447.645,4.459531,-10.84573,-3.787627,-6.675034,0.7989483,-5.131379,3.702859,-1134,2026,92
2447.648,4.463438,-11.96622,-4.261679,-7.31668,0.7659251,-5.21873,3.883954,-1125,2004,75
2447.652,4.467344,-13.18247,-4.941632,-7.785944,0.8053399,-5.271994,3.984089,-1149,1986,99
2447.656,4.47125,-14.73871,-5.554548,-7.819463,0.9129316,-5.299691,4.022439,-1137,2012,96
2447.66,4.475156,-16.36197,-6.014235,-7.249643,1.065264,-5.308213,4.019243,-1160,2001,30
2447.664,4.479063,-17.8368,-5.985504,-6.081272,1.200553,-5.307147,3.98835,-1143,2033,56
2447.668,4.482969,-18.22466,-6.023811,-5.832275,1.139833,-5.274124,3.898868,-1105,1992,70
2447.672,4.486875,-17.99482,-5.731719,-5.420473,1.006675,-5.19636,3.682619,-1127,1977,143
2447.676,4.490781,-17.43936,-4.845864,-5.027823,0.8596684,-5.104747,3.418434,-1130,2029,89
2447.68,4.494688,-16.88391,-4.481946,-5.793968,0.6945524,-4.95348,3.209642,-1170,2020,91
2447.684,4.498594,-16.6828,-5.386954,-5.616797,0.5752428,-4.844823,3.169162,-1111,1999,42
2447.688,4.5025,-16.65407,-6.497863,-5.588067,0.479369,-4.772385,3.164901,-1134,1987,66
2447.691,4.506406,-16.31888,-7.153875,-5.688623,0.390952,-4.697816,3.163835,-1131,2005,100
2447.695,4.510313,-15.86398,-7.129933,-5.951985,0.2908172,-4.57105,3.130812,-1188,2003,116
2447.699,4.514219,-15.773,-7.000646,-6.301539,0.2908172,-4.459197,3.073288,-1188,2034,75
2447.703,4.518125,-15.86398,-7.264008,-6.277597,0.2993393,-4.31006,2.978479,-1178,2017,42
2447.707,4.522031,-16.04115,-7.335834,-6.258443,0.2524677,-4.177967,2.815494,-1107,1971,29
2447.711,4.525938,-15.78258,-6.382942,-6.258443,0.2258361,-3.992611,2.538525,-1141,2011,79
2447.715,4.529844,-15.42345,-5.635951,-6.325481,0.2407498,-3.816842,2.342516,-1178,2003,63
2447.719,4.53375,-14.56632,-5.137957,-6.536171,0.241815,-3.625095,2.165683,-1176,1991,57
2447.723,4.537656,-13.27824,-5.506664,-6.311116,0.2279666,-3.399259,2.017611,-1162,1993,51
2447.727,4.541563,-11.30063,-6.282385,-7.249643,0.1928129,-3.095658,1.818406,-1121,2007,27
2447.73,4.545469,-9.849746,-7.034164,-7.905654,0.1512675,-2.844256,1.634116,-1148,1938,58
2447.734,4.549375,-8.437167,-7.862558,-8.734048,0.1363538,-2.579005,1.439172,-1208,1990,81
2447.738,4.553281,-7.187393,-8.944737,-9.44752,0.1864213,-2.297775,1.258077,-1175,2000,45
2447.742,4.557188,-5.865794,-10.1179,-10.04128,0.3238404,-2.031459,1.10681,-1162,2043,28
2447.746,4.561094,-5.061342,-11.4778,-10.27591,0.6199839,-1.692705,0.9363674,-1143,1965,46
2447.75,4.565,-4.453215,-12.0572,-9.749189,0.86606,-1.447694,0.8000136,-1140,1979,76
2447.754,4.568906,-4.13718,-12.13381,-8.858546,1.117462,-1.199488,0.6306365,-1171,1992,85
2447.758,4.572813,-4.141969,-11.57836,-8.207323,1.296427,-0.9321064,0.4239752,-1159,2009,38
2447.762,4.576719,-4.572925,-9.974244,-7.19697,1.424259,-0.5858954,0.08841695,-1192,2049,37
2447.766,4.580625,-5.051766,-7.881712,-6.703765,1.466869,-0.330232,-0.1704423,-1176,1979,44
2447.77,4.584531,-5.530606,-5.865794,-6.655881,1.484979,-0.07989483,-0.4005394,-1162,2001,84
2447.773,4.588438,-5.913678,-4.213795,-7.163451,1.473261,0.1725728,-0.6103965,-1179,2020,34
2447.777,4.592344,-6.143521,-3.323152,-7.388506,1.465804,0.5209143,-0.8532768,-1187,2019,45
2447.781,4.59625,-5.93762,-3.734955,-7.752425,1.472195,0.7605988,-1.014132,-1161,1974,45
2447.785,4.600156,-5.425261,-4.568137,-7.838616,1.458347,0.9928265,-1.16966,-1150,1938,87
2447.789,4.604063,-4.999093,-5.061342,-8.058883,1.402953,1.204814,-1.334776,-1162,2009,27
2447.793,4.607969,-4.596867,-5.042189,-8.355764,1.28897,1.465804,-1.562743,-1157,1995,118
2447.797,4.611875,-4.759673,-4.817134,-7.216124,1.217597,1.658617,-1.720402,-1167,2011,-16
2447.801,4.615781,-5.774814,-4.094085,-5.185841,1.220793,1.791775,-1.849299,-1147,1998,10
2447.805,4.619688,-7.814674,-2.873042,-1.034295,1.407214,1.842907,-1.949434,-1171,1978,88
2447.809,4.623594,-13.24951,0.794875,7.608773,1.825863,1.824798,-2.088984,-1141,1967,73
2447.812,4.6275,-21.47599,8.015787,16.11298,2.109224,1.729989,-2.216815,-1203,2017,92
2447.816,4.631406,-36.61692,20.94448,27.69612,2.353169,1.554221,-2.128398,-1166,2006,24
2447.82,4.635313,-52.92143,37.15322,8.331822,2.694054,1.23038,-1.462608,-1096,2012,51
2447.824,4.639219,-45.23126,22.52465,-0.9672575,3.176619,1.206945,-0.1587244,-1114,1956,14
2447.828,4.643125,-25.77119,0.3543418,-10.20409,4.414456,1.247425,0.1267665,-1140,1953,115
2447.832,4.647031,-11.10431,-15.01643,-10.16578,5.688512,1.650095,0.06178534,-1186,2010,77
2447.836,4.650938,-7.307103,-15.33726,-10.47224,6.014483,1.508414,-0.05645902,-1201,1990,39
2447.84,4.654844,-12.0572,-3.950433,-9.02614,2.84106,1.502023,-0.4921522,-1121,2019,38
2447.844,4.65875,-11.19529,4.975151,-6.14831,-0.2950782,1.497762,-1.259143,-1108,1988,64
2447.848,4.662656,-4.936844,16.19917,-3.452439,-0.7669904,1.781122,-2.028263,-1120,1990,51
2447.852,4.666563,-0.1244985,24.31551,-3.993528,-0.03621899,2.081527,-2.372344,-1174,2012,82
2447.855,4.670469,-5.152322,23.02264,-0.7661445,-0.09693906,2.619485,-1.959021,-1136,2012,40
2447.859,4.674375,-11.23838,18.8711,3.648763,-1.634116,2.768622,-1.788579,-1177,1989,35
2447.863,4.678281,-12.46421,14.35084,2.944868,-2.744121,2.414954,-1.747034,-1107,1931,29
2447.867,4.682188,-9.71567,5.693412,0.4118027,-2.805907,2.106028,-1.624528,-1149,1972,89
2447.871,4.686094,-5.233725,-3.677494,0.05267244,-2.360626,2.141182,-1.495631,-1186,1984,78
2447.875,4.69,-3.366248,-14.14016,-0.06224924,-1.079113,2.381931,-1.364604,-1190,2014,43
2447.879,4.693906,-3.816357,-21.25572,-2.264915,0.257794,2.621616,-1.389105,-1140,1998,47
2447.883,4.697813,-6.392518,-26.56127,-6.143521,1.426389,2.756904,-1.616006,-1175,1984,84
2447.887,4.701719,-10.1562,-31.45502,-9.672575,1.635181,2.606702,-1.93452,-1154,1994,105
2447.891,4.705625,-13.13938,-33.71994,-10.83137,1.1899,2.211489,-2.394714,-1144,2001,101
2447.895,4.709531,-13.20163,-30.87562,-8.619126,0.9278453,1.905758,-2.787797,-1156,2013,82
2447.898,4.713438,-12.74194,-24.82787,-7.508216,1.040763,1.75236,-3.161705,-1128,1993,51
2447.902,4.717344,-11.68849,-17.91821,-7.872135,1.493501,1.639442,-3.398194,-1140,1964,87
2447.906,4.72125,-8.959103,-9.504981,-9.016563,2.283927,1.386974,-2.994458,-1165,1979,105
2447.91,4.725156,-8.212112,-5.78918,-8.542512,2.606702,1.172856,-2.29671,-1159,1999,97
2447.914,4.729063,-8.710106,-3.462016,-7.661445,2.67701,1.000283,-1.696966,-1199,2013,42
2447.918,4.732969,-9.648633,-1.015142,-6.497863,2.645052,0.8671253,-1.290035,-1122,1956,46
2447.922,4.736875,-11.01812,3.1795,-4.802769,2.53746,0.7946873,-0.9054748,-1135,2010,76
2447.926,4.740781,-11.83693,6.756437,-3.524265,2.313754,0.7712515,-0.6764429,-1194,1986,106
2447.93,4.744688,-11.64061,9.02614,-2.892196,1.827994,0.7084008,-0.5283712,-1158,2020,51
2447.934,4.748594,-10.23761,7.920019,-3.002329,1.160073,0.6934871,-0.5049353,-1131,2009,47
2447.938,4.7525,-7.982268,3.720589,-3.198653,0.1512675,0.7637946,-0.6508766,-1098,1969,54
2447.941,4.756406,-7.096414,1.077391,-2.437297,-0.6519418,0.8106662,-0.721184,-1097,2023,92
2447.945,4.760313,-6.933608,-0.2394202,-1.316811,-1.341168,0.8117315,-0.700944,-1155,1959,69
2447.949,4.764219,-7.311892,-0.6464344,-1.077391,-1.837581,0.7989483,-0.6519418,-1145,2044,44
2447.953,4.768125,-8.149862,-1.091756,-1.987187,-2.144377,0.8447547,-0.5997439,-1147,2021,78
2447.957,4.772031,-9.050082,-2.025495,-2.964022,-2.081527,0.9033442,-0.572047,-1140,1970,27
2447.961,4.775938,-9.950302,-3.615245,-3.682282,-1.849299,0.9544769,-0.5528722,-1139,1972,94
2447.965,4.779844,-10.817,-5.228936,-3.734955,-1.565939,0.9981528,-0.5326322,-1164,2012,96
2447.969,4.78375,-11.62145,-7.158663,-3.308787,-1.204814,0.9811085,-0.4921522,-1159,2023,67
2447.973,4.787656,-11.78426,-8.259996,-3.203442,-0.9779128,0.9044095,-0.4729774,-1086,2018,29
2447.977,4.791563,-11.47301,-8.781932,-3.045425,-0.8053399,0.793622,-0.4921522,-1102,1958,36
2447.98,4.795469,-10.80743,-8.585607,-3.136404,-0.6593987,0.6721819,-0.5635249,-1176,2009,108
2447.984,4.799375,-9.80665,-7.565677,-3.155558,-0.5219796,0.5826996,-0.6721819,-1111,2028,91
2447.988,4.803281,-9.524134,-5.506664,-2.983175,-0.3408846,0.5368933,-0.7850999,-1142,1999,65
2447.992,4.807188,-9.825804,-4.390966,-2.705448,-0.1725728,0.5241101,-0.8021441,-1125,2020,38
2447.996,4.811094,-10.43393,-3.782839,-2.5187,0.006391587,0.5070659,-0.7691209,-1125,2012,73
2448,4.815,-10.91277,-3.433285,-2.322376,0.1629855,0.4783037,-0.7137272,-1135,1988,94
2448.004,4.818906,-10.96544,-3.232172,-2.035071,0.3355583,0.4378237,-0.6380934,-1159,2038,109
2448.008,4.822813,-10.74997,-3.265691,-1.690306,0.4388889,0.4058658,-0.5890912,-1137,2011,46
2448.012,4.826719,-10.38605,-3.39019,-1.364695,0.5273059,0.3824299,-0.5464807,-1136,2033,56
2448.016,4.830625,-10.08917,-3.495534,-1.053449,0.5890912,0.3621899,-0.5113269,-1091,1994,34
2448.02,4.834531,-9.89763,-3.634398,-0.5410896,0.6050702,0.334493,-0.4910869,-1100,2001,82
2448.023,4.838438,-9.797073,-3.241749,-0.1867477,0.5390238,0.3057309,-0.479369,-1133,2033,53
2448.027,4.842344,-9.548076,-2.494758,-0.08140286,0.4101268,0.2801645,-0.4623248,-1129,2017,46
2448.031,4.84625,-9.35654,-1.642422,0.1867477,0.2503371,0.2684466,-0.4314321,-1088,1994,59
2448.035,4.850156,-8.939949,-0.5889736,0.4118027,0.02237055,0.2705772,-0.3877563,-1101,2017,62
2448.039,4.854063,-8.542512,-0.05267244,0.5506664,-0.1416802,0.2748382,-0.3557983,-1139,1977,53
2448.043,4.857969,-8.255207,-0.09576807,0.7182605,-0.278034,0.2897519,-0.3259709,-1136,2040,121
2448.047,4.861875,-7.972692,-0.5315128,0.8331822,-0.3771036,0.3110572,-0.3036004,-1152,2025,68
2448.051,4.865781,-8.087613,-1.211466,0.8379706,-0.4761732,0.3430151,-0.2833603,-1102,2029,54
2448.055,4.869688,-8.370129,-1.484405,0.9289502,-0.5400891,0.3515373,-0.2695119,-1128,2033,88
2448.059,4.873594,-8.825027,-1.522712,0.8762778,-0.5848302,0.3494067,-0.2535329,-1166,2009,76
2448.062,4.8775,-9.14585,-1.450886,0.818817,-0.588026,0.3366236,-0.237554,-1153,2058,80
2448.066,4.881406,-9.351752,-1.527501,0.5650316,-0.5294364,0.3281014,-0.2194445,-1180,2034,80
2448.07,4.885313,-9.270349,-1.786074,0.4501099,-0.4495416,0.334493,-0.2151834,-1123,2034,80
2448.074,4.889219,-9.32781,-2.054225,0.2920926,-0.3781689,0.334493,-0.2194445,-1120,1971,111
2448.078,4.893125,-9.332598,-2.202666,0.2681506,-0.3291667,0.334493,-0.2311624,-1140,2002,108
2448.082,4.897031,-9.524134,-2.06859,0.06703765,-0.2993393,0.3355583,-0.2514024,-1148,2030,85
2448.086,4.900938,-9.643844,-1.853112,-0.06224924,-0.2514024,0.3419499,-0.2844256,-1152,2026,66
2448.09,4.904844,-9.758766,-1.527501,-0.02394202,-0.1906823,0.3451457,-0.3238404,-1132,2006,61
2448.094,4.90875,-9.849746,-1.125275,-0.1005565,-0.1352886,0.3440804,-0.3611246,-1087,1987,94
2448.098,4.912656,-9.77792,-0.7661445,0.04788403,-0.07882957,0.3398194,-0.390952,-1166,2011,123
2448.102,4.916563,-9.720459,-0.2633622,0.3591302,-0.07563377,0.3494067,-0.4016047,-1143,2039,81
2448.105,4.920469,-9.600749,0.2633622,0.5889736,-0.1203749,0.3494067,-0.4101268,-1146,1991,49
2448.109,4.924375,-9.428366,0.7422025,0.6943185,-0.1896171,0.366451,-0.4218447,-1088,1969,82
2448.113,4.928281,-9.107543,1.072602,0.7422025,-0.2652508,0.3845605,-0.4356932,-1139,2027,95
2448.117,4.932188,-8.90643,1.04866,0.7278373,-0.3323625,0.42291,-0.4484763,-1181,2002,101
2448.121,4.936094,-8.791508,0.6129156,0.8092402,-0.370712,0.4538026,-0.4569984,-1121,1987,130
2448.125,4.94,-8.724471,0.06703765,0.9672575,-0.4101268,0.4814995,-0.4740427,-1119,1998,69
2448.129,4.943906,-8.743624,-0.5027823,1.000776,-0.4346279,0.5102617,-0.4974785,-1104,2008,19
2448.133,4.947813,-8.839393,-1.096544,0.9050082,-0.4218447,0.5454154,-0.531567,-1114,2037,84
2448.137,4.951719,-8.8777,-1.431733,0.9672575,-0.3877563,0.5635249,-0.5571333,-1114,1997,122
2448.141,4.955625,-8.983045,-1.70946,0.9002198,-0.3589941,0.5752428,-0.5763081,-1143,2045,83
2448.145,4.959531,-9.08839,-1.776498,0.7996634,-0.3281014,0.5826996,-0.5858954,-1141,2006,69
2448.148,4.963438,-9.169792,-1.73819,1.015142,-0.298274,0.6093313,-0.6018744,-1136,1997,49
2448.152,4.967344,-9.217676,-1.493982,1.024718,-0.2876214,0.6199839,-0.6178534,-1097,2025,104
2448.156,4.97125,-9.136274,-1.211466,0.9624691,-0.2759035,0.6338323,-0.6359629,-1155,1968,79
2448.16,4.975156,-9.136274,-0.9624691,0.9911995,-0.2620551,0.6508766,-0.6562029,-1132,2079,83
2448.164,4.979063,-9.078813,-0.6224924,0.8762778,-0.2535329,0.6902914,-0.6764429,-1146,1989,49
2448.168,4.982969,-9.021352,-0.3734955,0.8140286,-0.2588593,0.7147924,-0.6838998,-1108,1984,59
2448.172,4.986875,-9.045294,-0.3256114,0.6847417,-0.2673814,0.7339672,-0.6934871,-1118,1972,92
2448.176,4.990781,-8.901642,-0.3782839,0.4836287,-0.2535329,0.7510114,-0.7062703,-1128,2012,101
2448.18,4.994688,-8.781932,-0.4118027,0.1963245,-0.2386192,0.7808388,-0.716923,-1160,2028,105
2448.184,4.998594,-8.657433,-0.3974375,-0.05746084,-0.2407498,0.8000136,-0.7222493,-1143,2055,54
2448.188,5.0025,-8.604761,-0.4884171,-0.4118027,-0.241815,0.8181231,-0.7233146,-1142,2012,55
2448.191,5.006406,-8.57603,-0.6033388,-0.5985504,-0.2300971,0.8372978,-0.7243798,-1083,2027,110
2448.195,5.010313,-8.762778,-0.9050082,-1.053449,-0.237554,0.8628642,-0.7275756,-1140,1988,122
2448.199,5.014219,-8.963891,-1.240196,-1.359907,-0.2396845,0.8788432,-0.7286409,-1153,2051,51
2448.203,5.018125,-9.303868,-1.522712,-1.599327,-0.2322276,0.8937569,-0.7318367,-1123,2051,80
2448.207,5.022031,-9.706094,-1.73819,-1.742979,-0.2556635,0.9044095,-0.7360977,-1125,2001,67
2448.211,5.025938,-10.2807,-1.838747,-2.097321,-0.2929477,0.9118664,-0.7467504,-1082,2053,82
2448.215,5.029844,-10.68772,-1.915361,-1.968034,-0.3281014,0.9182579,-0.7595335,-1169,2022,100
2448.219,5.03375,-10.92714,-1.900996,-1.762132,-0.3600594,0.9161274,-0.7669904,-1116,2065,75
2448.223,5.037656,-11.05642,-1.900996,-1.786074,-0.390952,0.9214537,-0.7755125,-1118,2022,78
2448.227,5.041563,-11.05642,-2.020706,-1.690306,-0.4079963,0.9491506,-0.7893609,-1095,2044,75
2448.23,5.045469,-11.11867,-2.183512,-1.541866,-0.3898868,0.9629991,-0.7872304,-1113,1988,134
2448.234,5.049375,-11.08994,-2.614468,-0.9911995,-0.3589941,0.9598033,-0.7712515,-1135,2005,113
2448.238,5.053281,-11.08037,-2.935291,-0.4740519,-0.3419499,0.9512811,-0.753142,-1138,2021,83
2448.242,5.057188,-11.00375,-3.265691,-0.6272808,-0.3291667,0.9502159,-0.7350325,-1119,2008,83
2448.246,5.061094,-10.90319,-3.169923,-0.1005565,-0.3153183,0.9661948,-0.7243798,-1104,2018,92
2448.25,5.065,-10.80743,-2.844312,0.03351882,-0.3195793,0.9704559,-0.7286409,-1117,1999,92
2448.254,5.068906,-10.67814,-2.331952,0.296881,-0.3046656,0.9811085,-0.7360977,-1162,1992,113
2448.258,5.072813,-10.59195,-1.647211,0.3543418,-0.2961435,0.9981528,-0.7339672,-1110,2043,93
2448.262,5.076719,-10.6542,-0.8810662,0.794875,-0.3121225,1.034372,-0.7265103,-1115,2074,69
2448.266,5.080625,-10.82658,-0.4357447,1.106121,-0.3281014,1.063134,-0.7297061,-1116,2008,92
2448.27,5.084531,-10.97023,-0.1675941,1.043872,-0.3195793,1.092961,-0.7552725,-1119,2026,63
2448.273,5.088438,-11.04685,0.1101333,1.206678,-0.3163835,1.125985,-0.7989483,-1104,2052,150
