t_native_s,t_opt_s,ax,ay,az,gx,gy,gz,mx,my,mz
2437.223,-0.00075,-10.52012,1.762132,-0.545878,-0.7542072,0.02024002,-0.221575,519,758,72
2437.227,0.00315625,-10.53449,1.436521,-0.6751649,-0.7147924,0.05539375,-0.185356,514,788,71
2437.23,0.0070625,-10.59195,1.163582,-0.7852981,-0.6700513,0.08628642,-0.1533981,425,759,104
2437.234,0.01096875,-10.72602,0.8283938,-0.8571242,-0.6146576,0.0958738,-0.1203749,476,778,68
2437.238,0.014875,-10.72602,0.3974375,-0.9624691,-0.535828,0.08948221,-0.07456851,498,766,80
2437.242,0.01878125,-10.61589,0.09097966,-1.125275,-0.4719121,0.06924219,-0.0330232,505,781,80
2437.246,0.0226875,-10.43393,-0.2442086,-1.23062,-0.4037352,0.0660464,0.008522115,465,762,95
2437.25,0.02659375,-10.18493,-0.6607997,-1.149217,-0.2822951,0.0809601,0.06072007,474,754,55
2437.254,0.0305,-10.10353,-0.8523358,-0.818817,-0.181095,0.1001349,0.09693906,459,756,99
2437.258,0.03440625,-10.06044,-1.034295,-0.6368576,-0.0777643,0.1139833,0.1299623,497,748,101
2437.262,0.0383125,-10.01734,-1.201889,-0.5650316,0.05965481,0.1257012,0.1683118,466,781,86
2437.266,0.04221875,-9.988609,-1.264138,-0.4836287,0.169377,0.1310275,0.1938781,487,762,108
2437.27,0.046125,-9.945514,-1.23062,-0.4453215,0.273773,0.1278317,0.2141182,506,781,50
2437.273,0.05003125,-9.945514,-1.082179,-0.4501099,0.3749731,0.1214401,0.2300971,483,769,102
2437.277,0.0539375,-10.0317,-0.8762778,-0.56982,0.4942827,0.1203749,0.2439456,508,772,118
2437.281,0.05784375,-10.10832,-0.6799533,-0.6033388,0.5656554,0.1139833,0.2482066,470,786,80
2437.285,0.06175,-10.15142,-0.4836287,-0.6033388,0.6210492,0.1150486,0.2492719,468,766,72
2437.289,0.06565625,-10.18493,-0.2154781,-0.5075708,0.6764429,0.1033307,0.2503371,476,772,83
2437.293,0.0695625,-10.24718,-0.004788403,-0.4501099,0.7073356,0.09161274,0.2514024,486,780,64
2437.297,0.07346875,-10.15142,0.2394202,-0.3830723,0.7275756,0.0777643,0.2567287,520,779,112
2437.301,0.077375,-10.09395,0.3687071,-0.296881,0.7403588,0.05858954,0.2652508,466,777,81
2437.305,0.08128125,-10.10353,0.5602432,-0.3160346,0.7510114,0.05432849,0.2769688,496,756,93
2437.309,0.0851875,-10.08438,0.6847417,-0.3495534,0.757403,0.05006743,0.2833603,463,760,56
2437.312,0.08909375,-10.1993,0.8858546,-0.3974375,0.757403,0.05432849,0.2908172,451,750,110
2437.316,0.093,-10.23282,0.9672575,-0.4453215,0.757403,0.04900216,0.2950782,484,783,103
2437.32,0.09690625,-10.19451,1.005565,-0.4070143,0.7616641,0.0479369,0.3036004,462,788,80
2437.324,0.1008125,-10.13705,1.01993,-0.4596867,0.7627293,0.03834952,0.3121225,486,763,81
2437.328,0.1047187,-10.02213,0.9959879,-0.5650316,0.7637946,0.03515373,0.3238404,476,786,60
2437.332,0.108625,-9.92636,0.9720459,-0.6847417,0.757403,0.03621899,0.3376888,475,791,46
2437.336,0.1125312,-9.849746,0.9624691,-0.7757213,0.7446198,0.04367584,0.3451457,485,772,83
2437.34,0.1164375,-9.801862,1.000776,-0.8523358,0.7243798,0.04367584,0.350472,475,782,68
2437.344,0.1203437,-9.859322,0.9576807,-0.9385271,0.6743124,0.05432849,0.3515373,458,765,59
2437.348,0.12425,-9.878476,1.120486,-1.010353,0.6306365,0.05858954,0.350472,483,738,109
2437.352,0.1281562,-9.931148,1.221043,-1.053449,0.588026,0.06178534,0.3472762,460,755,62
2437.355,0.1320625,-9.89763,1.273715,-1.149217,0.5496764,0.06817692,0.3430151,449,756,70
2437.359,0.1359687,-9.983821,1.493982,-1.154005,0.5038701,0.07030745,0.3334278,449,768,85
2437.363,0.139875,-10.01255,1.642422,-1.197101,0.4708469,0.06924219,0.3259709,486,791,81
2437.367,0.1437812,-10.10353,1.714248,-1.28808,0.4346279,0.0628506,0.3206446,486,775,116
2437.371,0.1476875,-10.17057,1.771709,-1.355118,0.3802994,0.06178534,0.3089267,477,766,122
2437.375,0.1515937,-10.17057,1.70946,-1.47004,0.334493,0.05752428,0.3004046,488,786,77
2437.379,0.1555,-10.22803,1.719037,-1.608904,0.2812298,0.06498113,0.2897519,462,771,73
2437.383,0.1594062,-10.18972,1.781286,-1.728614,0.2237055,0.06391587,0.2790993,484,792,63
2437.387,0.1633125,-10.13705,1.877054,-1.742979,0.1470065,0.05219796,0.2641856,483,749,108
2437.391,0.1672187,-10.12268,1.972822,-1.733402,0.08948221,0.05326322,0.257794,467,773,114
2437.395,0.171125,-10.11311,2.06859,-1.742979,0.03408846,0.04474111,0.2524677,485,773,98
2437.398,0.1750312,-10.07001,2.059013,-1.776498,-0.04154531,0.04048005,0.2503371,453,781,40
2437.402,0.1789375,-10.12747,2.078167,-1.872266,-0.09480853,0.0330232,0.2492719,484,767,80
2437.406,0.1828437,-10.1993,2.011129,-1.991976,-0.1395496,0.02556635,0.241815,463,791,52
2437.41,0.18675,-10.3238,1.924938,-1.996764,-0.1885518,0.03089267,0.2354234,482,784,80
2437.414,0.1906562,-10.32859,1.786074,-2.044648,-0.2514024,0.02237055,0.221575,471,795,74
2437.418,0.1945625,-10.2807,1.651999,-2.06859,-0.2950782,0.02450108,0.2183792,479,775,111
2437.422,0.1984687,-10.20888,1.556231,-2.006341,-0.3366236,0.01917476,0.2173139,479,763,102
2437.426,0.202375,-10.18493,1.340753,-1.996764,-0.3760383,0.005326322,0.2247708,492,732,75
2437.43,0.2062812,-10.12268,1.096544,-1.934515,-0.3888215,-0.01065264,0.2290319,403,769,113
2437.434,0.2101875,-10.16578,0.9050082,-1.987187,-0.3941478,-0.02876214,0.2364887,476,780,46
2437.438,0.2140937,-10.06044,0.6320692,-1.944092,-0.3792341,-0.04048005,0.2460761,537,792,92
2437.441,0.218,-9.92636,0.4357447,-1.987187,-0.3536678,-0.05219796,0.2535329,454,764,78
2437.445,0.2219062,-9.89763,0.2777274,-2.03986,-0.3238404,-0.04900216,0.2631203,465,770,85
2437.449,0.2258125,-9.89763,0.07661445,-2.097321,-0.2822951,-0.04687164,0.2748382,475,776,95
2437.453,0.2297187,-9.830592,-0.1388637,-2.140416,-0.2205097,-0.04154531,0.2908172,452,768,88
2437.457,0.233625,-9.821015,-0.2681506,-2.217031,-0.1715076,-0.03621899,0.3036004,489,787,104
2437.461,0.2375312,-9.734824,-0.320823,-2.269703,-0.1150486,-0.03728426,0.3153183,460,783,80
2437.465,0.2414375,-9.691728,-0.3687071,-2.336741,-0.03728426,-0.03515373,0.3376888,497,771,86
2437.469,0.2453437,-9.615114,-0.3303998,-2.413355,0.02769688,-0.03515373,0.3557983,452,777,75
2437.473,0.24925,-9.610325,-0.2920926,-2.499547,0.09693906,-0.02556635,0.3739078,474,777,123
2437.477,0.2531562,-9.572018,-0.3543418,-2.504335,0.1661813,-0.008522115,0.3952131,473,800,68
2437.48,0.2570625,-9.615114,-0.3064578,-2.509123,0.2514024,0.01065264,0.4186489,489,769,103
2437.484,0.2609687,-9.667786,-0.296881,-2.542642,0.3057309,0.02876214,0.4367584,494,754,90
2437.488,0.264875,-9.667786,-0.2298434,-2.475605,0.3643204,0.03515373,0.4548679,478,781,72
2437.492,0.2687812,-9.653421,-0.1244985,-2.566584,0.4346279,0.04367584,0.4825648,484,756,101
2437.496,0.2726875,-9.576807,-0.06703765,-2.504335,0.4889564,0.04474111,0.499609,447,804,101
2437.5,0.2765937,-9.610325,0.03830723,-2.48997,0.5347627,0.04367584,0.5187838,462,764,77
2437.504,0.2805,-9.548076,0.06224924,-2.480393,0.572047,0.05113269,0.535828,477,755,103
2437.508,0.2844062,-9.504981,0.1580173,-2.413355,0.6061355,0.06391587,0.551807,463,793,104
2437.512,0.2883125,-9.452308,0.2873042,-2.413355,0.6157228,0.07137272,0.5645902,478,771,87
2437.516,0.2922187,-9.433155,0.3639187,-2.245761,0.6135923,0.08309063,0.5741775,447,790,93
2437.52,0.296125,-9.385271,0.4596867,-2.1883,0.5848302,0.08948221,0.5837649,500,767,78
2437.523,0.3000312,-9.442731,0.6368576,-2.145205,0.5581986,0.09374327,0.5816344,458,775,84
2437.527,0.3039375,-9.471462,0.8379706,-2.015918,0.5251754,0.09800433,0.5763081,505,784,78
2437.531,0.3078437,-9.552865,1.024718,-2.049437,0.4814995,0.1022654,0.5752428,457,775,102
2437.535,0.31175,-9.610325,1.173159,-1.92015,0.4165184,0.1065264,0.5677859,443,778,83
2437.539,0.3156562,-9.662998,1.225831,-1.795651,0.3653857,0.1043959,0.5603291,449,753,112
2437.543,0.3195625,-9.782708,1.335965,-1.714248,0.3067962,0.1001349,0.5486112,440,785,92
2437.547,0.3234687,-9.816227,1.441309,-1.58975,0.2258361,0.0809601,0.5326322,503,819,114
2437.551,0.327375,-9.911995,1.489193,-1.455675,0.1629855,0.07030745,0.5209143,475,799,103
2437.555,0.3312812,-9.830592,1.522712,-1.403002,0.09800433,0.05965481,0.5049353,472,769,64
2437.559,0.3351875,-9.907206,1.580173,-1.407791,0.03515373,0.04474111,0.4889564,473,792,112
2437.562,0.3390937,-9.907206,1.580173,-1.441309,-0.04367584,0.03728426,0.4697816,463,788,73
2437.566,0.343,-9.959879,1.637634,-1.517924,-0.09374327,0.02450108,0.4569984,442,791,75
2437.57,0.3469062,-9.979033,1.637634,-1.517924,-0.1480718,0.002130529,0.4463458,456,847,84
2437.574,0.3508125,-10.00776,1.575385,-1.513135,-0.2162487,-0.02237055,0.4314321,487,786,84
2437.578,0.3547187,-9.993398,1.537077,-1.608904,-0.2641856,-0.04048005,0.4218447,436,766,82
2437.582,0.358625,-9.921572,1.474828,-1.61848,-0.3057309,-0.05326322,0.4133226,454,736,104
2437.586,0.3625312,-9.907206,1.407791,-1.714248,-0.3632552,-0.06924219,0.4005394,455,780,102
2437.59,0.3664375,-9.873688,1.264138,-1.728614,-0.4005394,-0.07243798,0.3941478,459,800,73
2437.594,0.3703437,-9.868899,1.192312,-1.776498,-0.4346279,-0.07563377,0.3877563,439,768,101
2437.598,0.37425,-9.787496,1.043872,-1.872266,-0.4697816,-0.07563377,0.3824299,474,797,93
2437.602,0.3781562,-9.811438,0.818817,-1.900996,-0.5060006,-0.0809601,0.3749731,459,752,74
2437.605,0.3820625,-9.71567,0.6464344,-1.968034,-0.5273059,-0.08735168,0.366451,473,772,68
2437.609,0.3859687,-9.672575,0.5841852,-1.982399,-0.5454154,-0.09161274,0.3600594,493,810,85
2437.613,0.389875,-9.59596,0.3112462,-2.073379,-0.5613944,-0.09267801,0.3526025,454,754,91
2437.617,0.3937812,-9.543288,0.1197101,-2.049437,-0.5603291,-0.09480853,0.3462109,474,775,73
2437.621,0.3976875,-9.576807,-0.01915361,-2.078167,-0.5603291,-0.08735168,0.3398194,481,765,118
2437.625,0.4015937,-9.538499,-0.1436521,-2.06859,-0.5475459,-0.07989483,0.3291667,447,782,92
2437.629,0.4055,-9.562441,-0.3830723,-2.035071,-0.5273059,-0.07882957,0.3153183,459,751,73
2437.633,0.4094062,-9.59596,-0.4213795,-2.044648,-0.5060006,-0.07563377,0.3067962,432,753,103
2437.637,0.4133125,-9.562441,-0.4740519,-1.996764,-0.479369,-0.07989483,0.3004046,434,817,61
2437.641,0.4172187,-9.428366,-0.5171476,-1.977611,-0.4527374,-0.08309063,0.2950782,478,783,33
2437.645,0.421125,-9.47625,-0.5027823,-1.939303,-0.4282363,-0.09374327,0.2897519,452,771,99
2437.648,0.4250312,-9.433155,-0.5363012,-1.953669,-0.4037352,-0.09374327,0.2876214,468,750,90
2437.652,0.4289375,-9.418789,-0.4740519,-1.82917,-0.3771036,-0.08841695,0.2876214,472,737,94
2437.656,0.4328437,-9.428366,-0.3878607,-1.8579,-0.350472,-0.07989483,0.2759035,458,757,66
2437.66,0.43675,-9.471462,-0.2825158,-1.752556,-0.3366236,-0.06924219,0.2727077,493,787,81
2437.664,0.4406562,-9.457097,-0.1675941,-1.604115,-0.3227751,-0.06178534,0.2684466,463,826,80
2437.668,0.4445625,-9.605537,-0.009576807,-1.364695,-0.3131877,-0.06178534,0.2641856,448,803,83
2437.672,0.4484687,-9.538499,0.09576807,-1.369483,-0.3057309,-0.05858954,0.2609898,497,777,101
2437.676,0.452375,-9.59596,0.09097966,-1.403002,-0.2993393,-0.05219796,0.2588593,455,786,105
2437.68,0.4562812,-9.591172,0.1244985,-1.383849,-0.298274,-0.04687164,0.2588593,461,770,133
2437.684,0.4601875,-9.643844,0.1580173,-1.369483,-0.3121225,-0.03728426,0.2524677,426,754,98
2437.688,0.4640937,-9.696517,0.2777274,-1.407791,-0.3281014,-0.04474111,0.2514024,462,769,86
2437.691,0.468,-9.696517,0.3351882,-1.455675,-0.3366236,-0.05006743,0.2535329,441,777,89
2437.695,0.4719062,-9.706094,0.4070143,-1.489193,-0.3312972,-0.05965481,0.2599245,448,790,73
2437.699,0.4758125,-9.696517,0.4261679,-1.513135,-0.3174488,-0.05965481,0.2684466,430,785,90
2437.703,0.4797187,-9.691728,0.4501099,-1.493982,-0.3004046,-0.05752428,0.278034,479,799,122
2437.707,0.483625,-9.59596,0.5027823,-1.484405,-0.278034,-0.06072007,0.2833603,438,806,76
2437.711,0.4875312,-9.591172,0.4596867,-1.594538,-0.2524677,-0.05645902,0.2950782,485,778,87
2437.715,0.4914375,-9.56723,0.4740519,-1.661576,-0.2354234,-0.05219796,0.3046656,452,753,81
2437.719,0.4953437,-9.514557,0.4788403,-1.666364,-0.221575,-0.04261058,0.3174488,494,780,88
2437.723,0.49925,-9.557653,0.4788403,-1.637634,-0.2077266,-0.03941478,0.3323625,433,755,69
2437.727,0.5031562,-9.504981,0.4596867,-1.594538,-0.1949434,-0.0330232,0.3408846,425,788,119
2437.73,0.5070625,-9.538499,0.5123592,-1.537077,-0.1885518,-0.03621899,0.3494067,449,790,87
2437.734,0.5109687,-9.433155,0.5075708,-1.556231,-0.1896171,-0.03408846,0.3611246,428,761,100
2437.738,0.514875,-9.433155,0.521936,-1.489193,-0.1938781,-0.03941478,0.3653857,459,774,106
2437.742,0.5187812,-9.418789,0.5841852,-1.426944,-0.201335,-0.04048005,0.370712,422,802,101
2437.746,0.5226875,-9.44752,0.6512229,-1.407791,-0.2141182,-0.04474111,0.3771036,489,767,87
2437.75,0.5265937,-9.375694,0.7278373,-1.388637,-0.2247708,-0.0479369,0.3781689,456,791,103
2437.754,0.5305,-9.375694,0.7709329,-1.359907,-0.2354234,-0.0479369,0.3781689,459,821,103
2437.758,0.5344062,-9.404424,0.7900865,-1.316811,-0.2450108,-0.0479369,0.3749731,439,831,85
2437.762,0.5383125,-9.394847,0.8044518,-1.331176,-0.2620551,-0.05326322,0.3685815,473,798,87
2437.766,0.5422187,-9.390059,0.8331822,-1.35033,-0.2801645,-0.05432849,0.3579289,452,841,51
2437.77,0.546125,-9.390059,0.8236054,-1.417367,-0.3014698,-0.05645902,0.3472762,430,808,77
2437.773,0.5500312,-9.375694,0.8475474,-1.474828,-0.3227751,-0.05965481,0.3366236,446,781,116
2437.777,0.5539375,-9.294291,0.8571242,-1.479617,-0.3494067,-0.06498113,0.3217099,461,784,86
2437.781,0.5578437,-9.26556,0.9050082,-1.508347,-0.3621899,-0.06498113,0.3174488,478,803,81
2437.785,0.56175,-9.150639,0.9385271,-1.561019,-0.3717773,-0.06711166,0.3153183,468,783,59
2437.789,0.5656562,-9.102755,0.9768343,-1.695095,-0.3781689,-0.07030745,0.3163835,452,796,94
2437.793,0.5695625,-9.107543,1.024718,-1.632846,-0.3771036,-0.06498113,0.3185141,472,832,100
2437.797,0.5734687,-9.184158,1.163582,-1.685518,-0.3728426,-0.05858954,0.3217099,424,787,41
2437.801,0.577375,-9.217676,1.173159,-1.695095,-0.366451,-0.05539375,0.3238404,480,747,83
2437.805,0.5812812,-9.303868,1.345541,-1.685518,-0.3632552,-0.04900216,0.334493,482,776,39
2437.809,0.5851875,-9.433155,1.450886,-1.68073,-0.3600594,-0.05006743,0.3419499,468,786,120
2437.812,0.5890937,-9.528923,1.594538,-1.656788,-0.3621899,-0.05219796,0.3515373,456,795,92
2437.816,0.593,-9.706094,1.896208,-1.561019,-0.3749731,-0.06498113,0.3653857,430,822,75
2437.82,0.5969062,-9.782708,2.106897,-1.465251,-0.3877563,-0.07563377,0.3802994,431,774,55
2437.824,0.6008125,-9.792285,2.303222,-1.398214,-0.4111921,-0.09267801,0.3952131,471,769,102
2437.828,0.6047187,-9.83538,2.528277,-1.37906,-0.4463458,-0.1033307,0.4101268,454,804,79
2437.832,0.608625,-9.902418,2.853888,-1.283292,-0.4889564,-0.1107875,0.4335626,458,799,101
2437.836,0.6125312,-9.983821,3.160346,-1.235408,-0.5219796,-0.1246359,0.4495416,428,780,87
2437.84,0.6164375,-9.988609,3.481169,-1.16837,-0.5550028,-0.1416802,0.4676511,421,787,64
2437.844,0.6203437,-10.00297,3.888183,-1.216254,-0.608266,-0.1544633,0.4964132,455,797,99
2437.848,0.62425,-10.01734,4.113238,-1.211466,-0.6530071,-0.1683118,0.5177185,441,778,75
2437.852,0.6281562,-10.06522,4.386177,-1.163582,-0.7020093,-0.169377,0.5422196,421,834,108
2437.855,0.6320625,-10.17536,4.55856,-1.25935,-0.7510114,-0.1683118,0.5677859,484,760,60
2437.859,0.6359687,-10.30943,4.783615,-1.221043,-0.8053399,-0.1725728,0.5954828,446,797,81
2437.863,0.639875,-10.43393,4.88896,-1.268927,-0.8490158,-0.1789644,0.6157228,462,781,78
2437.867,0.6437812,-10.47224,5.032612,-1.326388,-0.8948221,-0.1896171,0.6391587,493,759,102
2437.871,0.6476875,-10.55843,4.91769,-1.417367,-0.9480853,-0.2002697,0.6625945,433,803,92
2437.875,0.6515937,-10.57279,4.826711,-1.503559,-0.9832391,-0.2002697,0.6775082,450,783,105
2437.879,0.6555,-10.58237,4.668693,-1.623269,-1.016262,-0.2066613,0.6892261,489,783,75
2437.883,0.6594062,-10.70687,4.371812,-1.752556,-1.050351,-0.2098571,0.700944,440,809,49
2437.887,0.6633125,-10.78348,3.797204,-1.877054,-1.096157,-0.2173139,0.7041398,457,798,46
2437.891,0.6672187,-10.89362,3.371036,-1.953669,-1.125985,-0.2258361,0.6934871,458,810,99
2437.895,0.671125,-10.96544,3.016694,-1.977611,-1.157942,-0.2450108,0.6828345,464,778,82
2437.898,0.6750312,-10.91277,2.513912,-2.006341,-1.200553,-0.3025351,0.6689861,419,753,87
2437.902,0.6789375,-10.73081,2.087744,-2.121263,-1.226119,-0.3568636,0.6615292,482,812,116
2437.906,0.6828437,-10.71645,1.651999,-2.217031,-1.242098,-0.4133226,0.6562029,468,809,57
2437.91,0.68675,-10.817,1.01993,-2.456451,-1.264469,-0.4484763,0.6412892,437,815,74
2437.914,0.6906562,-11.04685,0.4932055,-2.547431,-1.280448,-0.4548679,0.6178534,490,797,72
2437.918,0.6945625,-11.33894,0.1388637,-2.796428,-1.295362,-0.4559332,0.5858954,443,835,78
2437.922,0.6984687,-11.67892,-0.1101333,-3.007117,-1.295362,-0.4665858,0.5592638,398,793,64
2437.926,0.702375,-12.19127,-0.3543418,-3.213019,-1.292166,-0.5209143,0.535828,429,800,65
2437.93,0.7062812,-12.50731,-0.6703765,-3.56736,-1.302818,-0.5688512,0.5283712,416,794,84
2437.934,0.7101875,-12.83292,-0.9816227,-4.031836,-1.327319,-0.5944176,0.5294364,454,806,105
2437.938,0.7140937,-12.84729,-1.23062,-4.386177,-1.330515,-0.6189186,0.5486112,464,785,94
2437.941,0.718,-12.77067,-1.388637,-4.563348,-1.307079,-0.6434197,0.5805691,420,787,76
2437.945,0.7219062,-12.58392,-1.608904,-4.76925,-1.26873,-0.6711166,0.6210492,417,812,61
2437.949,0.7258125,-12.49294,-1.872266,-4.979939,-1.219728,-0.6870956,0.6657903,462,816,81
2437.953,0.7297187,-12.23437,-2.394202,-5.257667,-1.136637,-0.6785734,0.7105314,429,786,97
2437.957,0.733625,-12.05241,-2.777274,-5.3678,-1.067395,-0.6636597,0.7329019,452,809,78
2437.961,0.7375312,-11.90397,-3.275268,-5.439626,-0.9853696,-0.6562029,0.7488809,449,827,70
2437.965,0.7414375,-11.87045,-3.864241,-5.501875,-0.8617989,-0.6306365,0.7552725,391,798,92
2437.969,0.7453437,-11.87045,-4.453215,-5.544971,-0.7755125,-0.6146576,0.7382283,448,802,63
2437.973,0.74925,-12.05241,-4.927267,-5.439626,-0.7030745,-0.5965481,0.6988135,421,792,71
2437.977,0.7531562,-12.20564,-5.516241,-5.267244,-0.6466155,-0.5731123,0.6434197,448,764,69
2437.98,0.7570625,-12.33972,-5.851429,-4.730942,-0.5912218,-0.5709817,0.5390238,412,811,47
2437.984,0.7609687,-12.11466,-5.741296,-4.156334,-0.556068,-0.6093313,0.4601942,453,808,75
2437.988,0.764875,-11.59272,-5.386954,-3.529053,-0.5049353,-0.6689861,0.390952,421,814,72
2437.992,0.7687812,-10.97023,-4.841076,-2.8491,-0.3845605,-0.7339672,0.3057309,435,778,95
2437.996,0.7726875,-10.6542,-4.683058,-2.48997,-0.2567287,-0.7510114,0.2322276,463,801,49
2438,0.7765937,-10.69729,-4.884171,-2.197877,-0.1139833,-0.7297061,0.1299623,451,752,67
2438.004,0.7805,-10.81221,-5.272032,-2.030283,0.02556635,-0.6881608,-0.003195793,441,819,68
2438.008,0.7844062,-11.36767,-6.047753,-1.810016,0.201335,-0.6199839,-0.2141182,434,806,81
2438.012,0.7883125,-11.9327,-6.536171,-1.58975,0.294013,-0.5826996,-0.3792341,432,773,47
2438.016,0.7922187,-12.39239,-6.919243,-1.359907,0.3462109,-0.5550028,-0.5305017,426,790,64
2438.02,0.796125,-12.80898,-6.967127,-0.9959879,0.3739078,-0.5305017,-0.6924219,432,811,76
2438.023,0.8000312,-13.17769,-6.794744,-0.7852981,0.3717773,-0.5102617,-0.7744472,434,805,63
2438.027,0.8039375,-13.69005,-6.517017,-0.7182605,0.3600594,-0.4697816,-0.8351673,432,791,94
2438.031,0.8078437,-14.60463,-6.26802,-0.7278373,0.3398194,-0.4133226,-0.8958874,440,779,66
2438.035,0.81175,-15.25106,-5.779603,-0.8092402,0.3281014,-0.3430151,-0.9704559,450,807,90
2438.039,0.8156562,-15.98369,-5.410896,-0.842759,0.3408846,-0.334493,-1.017328,430,772,81
2438.043,0.8195625,-16.48647,-5.061342,-0.9193734,0.3781689,-0.3675162,-1.053547,469,792,40
2438.047,0.8234687,-16.88391,-4.625598,-1.077391,0.4538026,-0.4729774,-1.091896,459,793,45
2438.051,0.827375,-16.93179,-4.668693,-1.340753,0.515588,-0.5656554,-1.122789,408,791,101
2438.055,0.8312812,-16.51999,-4.692635,-1.872266,0.572047,-0.6380934,-1.165399,441,790,86
2438.059,0.8351875,-15.50485,-4.774038,-2.317587,0.6402239,-0.7030745,-1.220793,416,830,78
2438.062,0.8390937,-14.40352,-4.711789,-1.934515,0.6817692,-0.7510114,-1.258077,452,775,51
2438.066,0.843,-13.06276,-4.448427,-1.517924,0.721184,-0.809601,-1.286839,457,857,73
2438.07,0.8469062,-11.78905,-4.070143,-1.082179,0.7605988,-0.8543421,-1.310275,467,768,79
2438.074,0.8508125,-10.49139,-3.581726,-0.9050082,0.7744472,-0.84582,-1.373126,438,838,55
2438.078,0.8547187,-9.490615,-3.801992,-1.192312,0.7584683,-0.7765778,-1.456216,442,783,65
2438.082,0.858625,-8.628703,-4.113238,-1.130063,0.7339672,-0.6508766,-1.54996,455,823,58
2438.086,0.8625312,-7.728483,-4.491522,-0.6703765,0.5890912,-0.4985438,-1.675661,435,772,67
2438.09,0.8664375,-7.192182,-4.237737,-1.11091,0.427171,-0.4261058,-1.739577,447,781,49
2438.094,0.8703437,-6.761225,-4.189853,-1.302446,0.2833603,-0.3739078,-1.783253,425,737,53
2438.098,0.87425,-6.473921,-4.094085,-1.455675,0.2354234,-0.314253,-1.820537,446,785,79
2438.102,0.8781562,-6.593631,-3.610456,-0.9576807,0.3419499,-0.1747034,-1.884453,405,816,74
2438.105,0.8820625,-7.311892,-3.155558,-0.593762,0.5028048,-0.07350325,-1.95476,423,787,64
2438.109,0.8859687,-8.384494,-2.715025,-0.4644751,0.6870956,0.02130529,-2.062352,456,757,67
2438.113,0.889875,-10.24718,-2.303222,-0.7517793,0.9076053,0.1374191,-2.23599,424,782,76
2438.117,0.8937812,-11.80341,-2.082955,-1.01993,1.026915,0.2183792,-2.374474,456,757,112
2438.121,0.8976875,-13.75229,-1.637634,-1.273715,1.0887,0.2918825,-2.49698,471,777,87
2438.125,0.9015937,-15.95975,-1.058237,-1.302446,1.089766,0.3366236,-2.575809,487,745,71
2438.129,0.9055,-19.11052,-0.08619126,-1.130063,1.00774,0.3440804,-2.592854,451,802,83
2438.133,0.9094062,-20.93011,0.6895301,-1.182736,0.9193232,0.2897519,-2.583266,448,790,92
2438.137,0.9133125,-22.12242,1.991976,-1.398214,0.8213189,0.1672465,-2.5577,464,757,72
2438.141,0.9172187,-22.01229,3.892972,-1.383849,0.6977482,-0.1043959,-2.481001,472,754,66
2438.145,0.921125,-21.03067,5.094861,-1.043872,0.6327671,-0.4058658,-2.426672,488,784,77
2438.148,0.9250312,-19.59415,5.923255,-0.5650316,0.5709817,-0.716923,-2.378735,444,769,97
2438.152,0.9289375,-17.69315,6.119579,-1.134852,0.5613944,-0.9651296,-2.352104,464,720,91
2438.156,0.9328437,-14.67646,6.038177,-2.542642,0.6050702,-1.002414,-2.332929,466,757,83
2438.16,0.93675,-12.47379,5.702988,-3.026271,0.6508766,-0.8372978,-2.312689,451,787,83
2438.164,0.9406562,-10.78348,5.243302,-3.007117,0.6881608,-0.556068,-2.277535,455,756,74
2438.168,0.9445625,-9.696517,4.687847,-2.322376,0.7073356,-0.149137,-2.222142,491,748,77
2438.172,0.9484687,-9.792285,4.333505,-1.848324,0.6924219,0.1203749,-2.188053,448,765,107
2438.176,0.952375,-10.4483,4.055778,-1.436521,0.6423545,0.330232,-2.164617,441,755,83
2438.18,0.9562812,-11.63582,3.892972,-0.9816227,0.5528722,0.4665858,-2.15503,463,771,89
2438.184,0.9601875,-12.53125,3.816357,-0.5554548,0.3888215,0.5443501,-2.15503,484,739,70
2438.188,0.9640937,-13.09628,3.711013,-0.3639187,0.2396845,0.5177185,-2.160356,461,765,87
2438.191,0.968,-13.24951,3.706224,-0.2059013,0.09374327,0.4293016,-2.167813,502,759,88
2438.195,0.9719062,-12.92869,3.701436,-0.225055,-0.09267801,0.2716424,-2.179531,484,762,78
2438.199,0.9758125,-12.29662,3.552995,-0.1867477,-0.2119876,0.1576591,-2.182727,462,723,100
2438.203,0.9797187,-11.42034,3.44765,-0.2777274,-0.314253,0.09374327,-2.190184,497,747,105
2438.207,0.983625,-10.29507,3.270479,-0.4118027,-0.3941478,0.08309063,-2.201902,488,746,62
2438.211,0.9875312,-9.643844,3.031059,-0.4692635,-0.4612595,0.1736381,-2.217881,457,718,118
2438.215,0.9914375,-9.232042,2.887407,-0.225055,-0.4751079,0.2769688,-2.232794,503,723,62
2438.219,0.9953437,-8.8777,2.810793,-0.09097966,-0.4772385,0.3802994,-2.241316,473,747,81
2438.223,0.99925,-8.734048,2.691083,0.04788403,-0.4772385,0.4804343,-2.242382,504,719,90
2438.227,1.003156,-8.738836,2.561796,-0.03351882,-0.4676511,0.5262406,-2.239186,460,719,105
2438.23,1.007062,-8.738836,2.351106,-0.2202666,-0.4452805,0.5603291,-2.229598,462,686,91
2438.234,1.010969,-8.705317,2.116474,-0.3974375,-0.4154531,0.6114618,-2.210424,512,742,84
2438.238,1.014875,-8.628703,1.953669,-0.4596867,-0.3952131,0.6423545,-2.193379,471,720,57
2438.242,1.018781,-8.513781,1.604115,-0.5889736,-0.3834952,0.6828345,-2.176335,479,777,64
2438.246,1.022687,-8.422801,1.307234,-0.5315128,-0.3675162,0.7105314,-2.162487,494,725,95
2438.25,1.026594,-8.346187,1.01993,-0.4644751,-0.3376888,0.7542072,-2.139051,499,755,100
2438.254,1.0305,-8.437167,0.8475474,-0.3256114,-0.3131877,0.7829694,-2.11668,482,742,105
2438.258,1.034406,-8.5473,0.7374141,-0.1244985,-0.278034,0.8042746,-2.095375,489,753,103
2438.262,1.038312,-8.791508,0.8044518,0.2106897,-0.2130529,0.8181231,-2.054895,529,723,90
2438.266,1.042219,-8.983045,0.7613561,0.4740519,-0.144876,0.813862,-2.017611,485,741,96
2438.27,1.046125,-9.2081,0.8044518,0.7134721,-0.06817692,0.8021441,-1.976066,511,755,98
2438.273,1.050031,-9.279926,0.7182605,0.9720459,0.02024002,0.7797736,-1.935585,494,745,87
2438.277,1.053937,-9.32781,0.6703765,1.11091,0.1587244,0.757403,-1.875931,473,720,100
2438.281,1.057844,-9.227253,0.56982,0.9959879,0.2801645,0.7510114,-1.829059,502,762,88
2438.285,1.06175,-9.188946,0.3878607,0.8236054,0.4143879,0.757403,-1.783253,497,720,131
2438.289,1.065656,-9.14585,0.320823,0.7326257,0.608266,0.7808388,-1.728924,533,769,98
2438.293,1.069562,-9.021352,0.2633622,0.6655881,0.7424893,0.8085357,-1.692705,518,737,114
2438.297,1.073469,-9.030929,0.08140286,0.5602432,0.86606,0.8234494,-1.660747,495,741,106
2438.301,1.077375,-9.021352,0.09576807,0.4836287,0.9832391,0.84582,-1.628789,498,764,110
2438.305,1.081281,-9.121908,0.1340753,0.3926491,1.130246,0.8639295,-1.593636,500,763,75
2438.309,1.085187,-9.2081,0.2154781,0.272939,1.23038,0.8767126,-1.564873,516,728,133
2438.312,1.089094,-9.217676,0.2011129,0.2681506,1.320928,0.8799084,-1.53185,510,698,120
2438.316,1.093,-9.165004,0.1723825,0.1244985,1.439172,0.8479505,-1.496697,533,726,137
2438.32,1.096906,-9.150639,0.1340753,-0.05746084,1.528654,0.8149273,-1.477522,531,712,111
2438.324,1.100812,-9.141062,0.09576807,-0.2920926,1.63092,0.7904262,-1.458347,539,739,101
2438.328,1.104719,-9.246407,-0.004788403,-0.4022259,1.744903,0.7787083,-1.429585,539,737,112
2438.332,1.108625,-9.241618,-0.03830723,-0.4501099,1.895105,0.7616641,-1.39017,540,704,102
2438.336,1.112531,-9.251195,-0.03830723,-0.4309563,1.988849,0.7446198,-1.352886,525,737,126
2438.34,1.116437,-9.26556,-0.07182605,-0.5123592,2.070874,0.7179882,-1.317732,494,733,134
2438.344,1.120344,-9.198523,0.05746084,-0.4501099,2.147573,0.6817692,-1.274056,547,735,101
2438.348,1.12425,-9.150639,0.2585738,-0.4213795,2.172074,0.6338323,-1.239968,517,732,106
2438.352,1.128156,-9.045294,0.4836287,-0.4213795,2.165683,0.5795039,-1.203749,528,718,108
2438.355,1.132062,-8.753201,0.7709329,-0.4118027,2.123072,0.5241101,-1.16966,553,723,111
2438.359,1.135969,-8.585607,1.273715,-0.5793968,2.017611,0.4516721,-1.138768,518,745,87
2438.363,1.139875,-8.250419,1.771709,-0.6560113,1.905758,0.4261058,-1.117462,530,745,90
2438.367,1.143781,-7.958326,2.336741,-0.7565677,1.773665,0.3994742,-1.101483,557,713,83
2438.371,1.147687,-7.584831,3.102885,-1.039084,1.574461,0.3877563,-1.081243,561,749,92
2438.375,1.151594,-7.354988,3.706224,-1.254562,1.423193,0.3834952,-1.06846,537,715,116
2438.379,1.1555,-7.163451,4.237737,-1.407791,1.278317,0.3941478,-1.055677,561,740,101
2438.383,1.159406,-6.967127,5.023035,-1.651999,1.107875,0.4218447,-1.038633,565,718,113
2438.387,1.163312,-6.818686,5.511452,-1.752556,0.9853696,0.4452805,-1.016262,545,746,85
2438.391,1.167219,-6.703765,5.875371,-1.776498,0.86606,0.4708469,-0.9832391,559,713,114
2438.395,1.171125,-6.488286,6.129156,-1.833958,0.7435546,0.4974785,-0.9470201,574,755,135
2438.398,1.175031,-6.26802,6.517017,-1.872266,0.5667207,0.5251754,-0.9001484,590,700,92
2438.402,1.178937,-6.133945,6.641515,-1.977611,0.4165184,0.5571333,-0.8628642,530,773,100
2438.406,1.182844,-5.956774,6.785168,-2.054225,0.2556635,0.5912218,-0.8266452,550,753,128
2438.41,1.18675,-5.928043,6.971915,-2.245761,0.03195793,0.6785734,-0.7701862,553,741,139
2438.414,1.190656,-5.985504,7.015011,-2.312799,-0.1438107,0.7467504,-0.7222493,550,707,128
2438.418,1.194562,-6.114791,6.952762,-2.221819,-0.3217099,0.8170578,-0.6700513,539,732,135
2438.422,1.198469,-6.26802,6.904878,-2.130839,-0.4964132,0.8937569,-0.6093313,581,779,131
2438.426,1.202375,-6.488286,6.670246,-1.843535,-0.7147924,0.9779128,-0.5219796,530,733,111
2438.43,1.206281,-6.675034,6.517017,-1.819593,-0.8681905,1.031176,-0.4538026,569,744,88
2438.434,1.210187,-6.80911,6.215348,-1.733402,-1.018393,1.090831,-0.3771036,564,734,103
2438.438,1.214094,-6.95755,5.755661,-1.728614,-1.209075,1.172856,-0.2599245,560,738,101
2438.441,1.218,-7.163451,5.295974,-1.604115,-1.335842,1.231446,-0.1661813,537,734,115
2438.445,1.221906,-7.326257,4.740519,-1.244985,-1.442368,1.280448,-0.07030745,599,731,118
2438.449,1.225812,-7.469909,4.084508,-0.7326257,-1.527589,1.313471,0.02343582,559,738,116
2438.453,1.229719,-7.795521,3.222595,0.05746084,-1.582983,1.302818,0.1352886,544,732,118
2438.457,1.233625,-7.97748,2.604891,0.7469909,-1.587244,1.269795,0.2237055,558,734,99
2438.461,1.237531,-8.298303,1.92015,1.331176,-1.559547,1.213336,0.3153183,552,732,99
2438.465,1.241437,-8.772355,0.9959879,2.202666,-1.456216,1.128115,0.4442153,580,745,119
2438.469,1.245344,-8.99741,0.2298434,2.791639,-1.327319,1.052481,0.5507417,582,734,126
2438.473,1.24925,-9.370905,-0.5602432,3.366248,-1.168595,0.9768475,0.6668555,563,739,114
2438.477,1.253156,-9.667786,-1.532289,3.816357,-0.9917612,0.8852347,0.7914915,564,786,135
2438.48,1.257062,-10.10832,-2.8491,4.434061,-0.753142,0.7520767,0.9640643,543,733,112
2438.484,1.260969,-10.43393,-4.204218,4.932055,-0.5752428,0.6625945,1.085504,544,757,87
2438.488,1.264875,-10.77391,-5.60722,5.406107,-0.3632552,0.572047,1.196292,551,739,148
2438.492,1.268781,-11.05163,-7.565677,5.956774,-0.06072007,0.4655206,1.334776,544,786,116
2438.496,1.272687,-11.16177,-9.078813,6.229713,0.1683118,0.3941478,1.426389,539,748,94
2438.5,1.276594,-11.18092,-10.54406,6.129156,0.3856257,0.3270362,1.503088,530,750,111
2438.504,1.2805,-10.83137,-11.74116,5.774814,0.5432849,0.2609898,1.532916,553,728,153
2438.508,1.284406,-10.34295,-13.23036,4.395754,0.6146576,0.2098571,1.492435,572,764,114
2438.512,1.288312,-9.892841,-14.04918,2.743755,0.5219796,0.1842907,1.36993,544,755,133
2438.516,1.292219,-9.514557,-14.81053,0.8810662,0.3067962,0.1832255,1.194161,559,752,101
2438.52,1.296125,-9.284714,-15.94059,-1.934515,-0.09800433,0.257794,0.9342369,510,782,99
2438.523,1.300031,-9.246407,-17.10418,-4.299986,-0.4154531,0.3557983,0.7329019,541,733,101
2438.527,1.303937,-9.318233,-18.3348,-7.163451,-0.6753777,0.4878911,0.5209143,557,763,106
2438.531,1.307844,-9.581595,-19.66118,-10.92235,-0.86606,0.6572682,0.2993393,562,782,113
2438.535,1.31175,-9.691728,-21.13122,-12.97657,-0.8990832,0.9161274,-0.01597897,536,729,111
2438.539,1.315656,-9.787496,-21.79202,-13.84806,-0.8586031,1.080178,-0.2535329,526,748,135
2438.543,1.319562,-9.89763,-21.61964,-13.9582,-0.757403,1.151551,-0.4836301,544,758,142
2438.547,1.323469,-10.19451,-19.78568,-12.89038,-0.5507417,1.128115,-0.7392935,545,776,105
2438.551,1.327375,-10.26155,-17.6309,-11.52569,-0.4037352,1.031176,-0.870321,526,793,134
2438.555,1.331281,-10.28549,-15.25106,-10.09874,-0.2950782,0.9001484,-0.9480853,533,770,130
2438.559,1.335187,-9.969456,-12.23437,-8.154651,-0.1704423,0.721184,-0.9629991,576,734,123
2438.562,1.339094,-9.576807,-10.36689,-6.794744,-0.05645902,0.6072007,-0.8990832,573,780,118
2438.566,1.343,-9.069236,-8.8777,-5.932832,0.07030745,0.5102617,-0.7968178,570,777,132
2438.57,1.346906,-8.413225,-7.747637,-5.492299,0.1938781,0.4516721,-0.680704,528,770,112
2438.574,1.350812,-7.431602,-6.80911,-5.315128,0.3291667,0.4111921,-0.5305017,525,750,142
2438.578,1.354719,-6.742072,-6.301539,-5.439626,0.3920173,0.406931,-0.4303668,534,783,112
2438.582,1.358625,-6.29675,-5.918467,-5.525817,0.4420847,0.4005394,-0.3398194,546,762,145
2438.586,1.362531,-6.200982,-5.363012,-5.851429,0.4857606,0.3834952,-0.2354234,576,739,155
2438.59,1.366437,-7.139509,-4.702212,-6.430826,0.5049353,0.3760383,-0.1736381,514,777,112
2438.594,1.370344,-9.313444,-3.56736,-7.158663,0.5262406,0.4452805,-0.1310275,537,749,152
2438.598,1.37425,-12.65575,-1.795651,-7.819463,0.5443501,0.6263755,-0.09800433,516,768,105
2438.602,1.378156,-18.92856,1.312023,-7.417237,0.6093313,1.061003,-0.0181095,544,726,133
2438.605,1.382062,-24.67943,4.19943,-6.215348,0.7467504,1.423193,0.1150486,556,790,125
2438.609,1.385969,-29.17095,7.019799,-3.131616,1.034372,1.73212,0.3387541,566,773,144
2438.613,1.389875,-25.22052,9.232042,7.747637,1.603223,1.434911,1.00774,550,766,155
2438.617,1.393781,-18.32043,8.365341,15.77779,2.057026,0.350472,1.723598,557,760,138
2438.621,1.397687,-13.25909,5.463568,16.00284,2.429868,-0.9651296,2.241316,551,758,162
2438.625,1.401594,-9.878476,2.116474,9.883264,2.669553,-1.687379,2.202967,539,743,144
2438.629,1.4055,-8.75799,-2.403778,1.795651,2.813363,-1.14942,1.584048,604,745,110
2438.633,1.409406,-10.79306,-6.110003,1.446098,2.813363,-0.09906959,1.150486,578,770,111
2438.637,1.413312,-14.35084,-10.04128,7.565677,2.81869,0.7179882,0.9768475,580,749,83
2438.641,1.417219,-19.34994,-15.60541,13.96777,3.350257,0.7467504,1.043959,575,761,124
2438.645,1.421125,-20.75773,-18.4162,12.30141,4.165184,0.1832255,1.074852,574,740,134
2438.648,1.425031,-18.36832,-19.80484,5.094861,4.801147,-0.5464807,0.9736517,571,809,131
2438.652,1.428937,-13.61343,-19.57978,-0.7709329,4.780907,-1.225054,0.757403,530,755,130
2438.656,1.432844,-7.508216,-17.28135,-5.679046,3.6464,-1.476457,0.2151834,552,771,99
2438.66,1.43675,-4.065354,-13.96298,-10.81221,2.888997,-0.9289106,-0.2695119,574,787,145
2438.664,1.440656,-3.936068,-8.834604,-9.083601,2.474609,-0.2364887,-0.7126619,532,770,145
2438.668,1.444562,-10.88404,-0.5315128,-0.7805097,1.839712,0.1704423,-1.234641,545,794,134
2438.672,1.448469,-19.68991,7.733271,2.920926,1.438107,0.2876214,-1.530785,569,770,136
2438.676,1.452375,-26.52775,18.70829,5.880159,1.229315,0.4058658,-1.54996,542,793,124
2438.68,1.456281,-23.93244,28.91717,8.183381,1.050351,0.1033307,-1.121723,554,768,148
2438.684,1.460187,-16.50084,33.72951,1.13964,0.6114618,-1.012001,0.006391587,545,742,138
2438.688,1.464094,-9.442731,30.5548,-10.91277,0.1352886,-1.73212,0.7254451,589,758,123
2438.691,1.468,-3.763685,26.78154,-16.79772,-0.6721819,-1.740642,1.019458,584,776,151
2438.695,1.471906,0.4213795,23.76485,-12.65096,-2.131594,-1.037568,1.052481,562,768,131
2438.699,1.475812,0.8619126,23.30037,-6.301539,-3.091397,-0.4282363,1.090831,563,784,158
2438.703,1.479719,-0.3830723,22.95561,-1.000776,-3.578223,0.04687164,1.227185,585,742,94
2438.707,1.483625,-3.912126,20.80082,0,-3.556918,0.4133226,1.492435,567,770,126
2438.711,1.487531,-7.589619,18.01876,-4.395754,-3.386476,0.5294364,1.719337,533,787,129
2438.715,1.491437,-11.72201,15.08347,-10.02692,-3.1404,0.6072007,1.955826,589,721,124
2438.719,1.495344,-15.47612,12.07635,-11.58315,-2.749448,0.7584683,2.220011,526,785,124
2438.723,1.49925,-18.68435,6.684611,-6.157887,-1.835451,0.9843043,2.69938,543,746,105
2438.727,1.503156,-19.4888,1.632846,1.063026,-0.8724516,0.9374327,3.094593,578,736,134
2438.73,1.507062,-19.58936,-3.375824,5.410896,0.1182444,0.5869607,3.339604,571,764,97
2438.734,1.510969,-18.9525,-9.71567,2.379836,1.04822,0.03089267,3.187271,560,792,170
2438.738,1.514875,-16.94616,-13.85285,-2.226608,1.192031,-0.1992044,2.765426,550,785,140
2438.742,1.518781,-13.95341,-16.44338,-5.473145,0.8543421,-0.3930826,2.258361,530,771,108
2438.746,1.522687,-10.83616,-17.06587,-6.344634,0.2460761,-0.4761732,1.825863,503,749,163
2438.75,1.526594,-7.64708,-14.93982,-5.386954,-0.6412892,-0.5060006,1.370995,523,809,115
2438.754,1.5305,-6.349423,-11.91355,-3.859453,-1.122789,-0.4143879,1.125985,536,781,133
2438.758,1.534406,-5.913678,-8.418013,-2.705448,-1.308145,-0.1970739,0.9683254,523,739,137
2438.762,1.538312,-6.47871,-4.122815,-1.479617,-1.022654,0.1768339,0.8990832,529,765,108
2438.766,1.542219,-7.718906,-1.513135,-0.6751649,-0.5091964,0.3621899,0.9534117,562,724,95
2438.77,1.546125,-9.375694,0.3926491,-0.3591302,0.05858954,0.386691,1.069525,573,763,138
2438.773,1.550031,-10.8601,1.728614,-0.4884171,0.5102617,0.2631203,1.194161,552,783,108
2438.777,1.553937,-11.91834,2.360683,-0.5985504,0.850081,-0.0181095,1.335842,557,805,122
2438.781,1.557844,-11.59272,2.475605,-0.8475474,0.922519,-0.2119876,1.411475,528,768,142
2438.785,1.56175,-10.70687,2.513912,-1.077391,0.8767126,-0.3547331,1.45089,573,759,128
2438.789,1.565656,-9.404424,2.987964,-1.565808,0.6977482,-0.3653857,1.465804,536,770,116
2438.793,1.569562,-8.853758,3.811569,-1.8579,0.5145227,-0.2769688,1.462608,515,784,131
2438.797,1.573469,-8.714894,4.735731,-1.944092,0.3174488,-0.1736381,1.476457,561,747,154
2438.801,1.577375,-8.863335,5.516241,-1.939303,0.1374191,-0.1097222,1.518002,547,785,149
2438.805,1.581281,-9.136274,6.157887,-1.92015,-0.03621899,-0.1022654,1.61281,567,770,126
2438.809,1.585187,-9.097966,6.124368,-1.968034,-0.1225054,-0.1214401,1.690575,516,812,93
2438.812,1.589094,-9.054871,5.784391,-2.001553,-0.181095,-0.1342233,1.756621,532,767,125
2438.816,1.593,-8.853758,4.783615,-1.944092,-0.2226403,-0.1246359,1.817341,543,776,117
2438.82,1.596906,-8.863335,3.849876,-1.934515,-0.2460761,-0.1012001,1.837581,536,790,114
2438.824,1.600812,-8.930372,2.829946,-1.810016,-0.2801645,-0.07456851,1.837581,561,757,139
2438.828,1.604719,-9.059659,1.94888,-1.786074,-0.3185141,-0.06924219,1.817341,514,779,127
2438.832,1.608625,-9.126697,0.8523358,-1.637634,-0.3760383,-0.08522115,1.757686,522,745,137
2438.836,1.612531,-9.126697,0.1819593,-1.623269,-0.4207795,-0.1054612,1.69377,538,792,109
2438.84,1.616437,-8.920795,-0.344765,-1.575385,-0.4729774,-0.1310275,1.628789,525,788,134
2438.844,1.620344,-8.599972,-0.8523358,-1.580173,-0.5571333,-0.1533981,1.548894,518,792,154
2438.848,1.62425,-8.327033,-1.082179,-1.570596,-0.6231797,-0.1576591,1.498827,511,777,112
2438.852,1.628156,-8.001422,-1.149217,-1.747767,-0.6817692,-0.1480718,1.460478,486,772,123
2438.855,1.632062,-7.637503,-1.082179,-1.900996,-0.7478156,-0.1278317,1.415736,527,775,87
2438.859,1.635969,-7.541735,-0.8236054,-2.049437,-0.7850999,-0.09480853,1.393366,522,813,125
2438.863,1.639875,-7.532158,-0.4979939,-2.145205,-0.8064052,-0.06072007,1.377387,519,768,141
2438.867,1.643781,-7.757213,-0.07182605,-2.183512,-0.8021441,-0.03089267,1.361408,518,725,97
2438.871,1.647687,-8.078036,0.4118027,-2.154781,-0.7797736,0.007456851,1.353951,500,734,108
2438.875,1.651594,-8.42759,0.7422025,-2.049437,-0.753142,0.02769688,1.352886,526,778,118
2438.879,1.6555,-8.781932,0.9768343,-1.833958,-0.7115966,0.04048005,1.348625,513,799,118
2438.883,1.659406,-9.064447,1.16837,-1.532289,-0.6455502,0.03728426,1.337972,508,741,137
2438.887,1.663312,-9.121908,1.264138,-1.264138,-0.588026,0.02450108,1.326254,539,798,140
2438.891,1.667219,-9.08839,1.249773,-1.115698,-0.5336975,0.006391587,1.324124,507,766,130
2438.895,1.671125,-9.040505,1.096544,-1.106121,-0.4804343,-0.01065264,1.324124,500,785,125
2438.898,1.675031,-8.853758,0.842759,-1.13964,-0.4356932,-0.01917476,1.314536,496,760,84
2438.902,1.678937,-8.777143,0.5315128,-1.292869,-0.4186489,-0.02237055,1.297492,502,785,114
2438.906,1.682844,-8.777143,0.2202666,-1.407791,-0.4037352,-0.0181095,1.274056,481,780,142
2438.91,1.68675,-8.820239,-0.09097966,-1.47004,-0.4111921,-0.00958738,1.241033,512,790,139
2438.914,1.690656,-8.968679,-0.3160346,-1.431733,-0.4165184,-0.005326322,1.217597,512,752,117
2438.918,1.694562,-8.99741,-0.5315128,-1.441309,-0.4314321,-0.01171791,1.194161,526,803,158
2438.922,1.698469,-9.045294,-0.7469909,-1.508347,-0.4516721,-0.0149137,1.172856,503,782,110
2438.926,1.702375,-8.973468,-1.015142,-1.49877,-0.515588,-0.007456851,1.153681,564,756,109
2438.93,1.706281,-8.844181,-1.182736,-1.450886,-0.5816344,0.001065264,1.14942,517,768,112
2438.934,1.710187,-8.676587,-1.407791,-1.426944,-0.6689861,0.01278317,1.14729,524,755,125
2438.938,1.714094,-8.561665,-1.776498,-1.374272,-0.7978831,0.02450108,1.141963,481,796,126
2438.941,1.718,-8.45632,-1.934515,-1.302446,-0.8916263,0.03408846,1.12705,504,806,111
2438.945,1.721906,-8.432378,-2.087744,-1.182736,-0.9736517,0.03728426,1.110006,498,786,105
2438.949,1.725812,-8.374917,-2.178724,-1.086968,-1.040763,0.03089267,1.084439,517,816,123
2438.953,1.729719,-8.470685,-2.097321,-1.144428,-1.102549,0.02237055,1.041829,497,791,136
2438.957,1.733625,-8.595184,-2.063802,-1.244985,-1.117462,0.02556635,1.003479,524,785,114
2438.961,1.737531,-8.724471,-1.963245,-1.383849,-1.118528,0.01384844,0.9640643,502,767,118
2438.965,1.741437,-9.035717,-1.838747,-1.647211,-1.111071,-0.01171791,0.9097358,498,790,122
2438.969,1.745344,-9.217676,-1.68073,-1.690306,-1.114267,-0.03941478,0.86606,500,784,126
2438.973,1.74925,-9.47625,-1.70946,-1.843535,-1.121723,-0.06924219,0.8234494,486,800,116
2438.977,1.753156,-9.653421,-1.522712,-1.963245,-1.131311,-0.1022654,0.777643,502,736,153
2438.98,1.757062,-9.725247,-1.35033,-2.035071,-1.159008,-0.1608549,0.7254451,495,801,80
2438.984,1.760969,-9.696517,-1.13964,-2.092532,-1.174987,-0.1896171,0.7094661,481,810,135
2438.988,1.764875,-9.677363,-1.077391,-2.25055,-1.179248,-0.2141182,0.7084008,457,814,138
2438.992,1.768781,-9.643844,-1.077391,-2.379836,-1.148355,-0.2151834,0.7243798,517,772,90
2438.996,1.772687,-9.696517,-1.154005,-2.418144,-1.095092,-0.1949434,0.7488809,511,739,113
2439,1.776594,-9.849746,-1.302446,-2.403778,-1.009871,-0.169377,0.7797736,472,803,139
2439.004,1.7805,-10.10353,-1.565808,-2.288857,-0.8958874,-0.144876,0.8064052,482,775,128
2439.008,1.784406,-10.31422,-1.824382,-2.197877,-0.7190535,-0.1118528,0.8468852,490,788,100
2439.012,1.788312,-10.35732,-1.939303,-2.288857,-0.5816344,-0.08309063,0.8799084,457,801,114
2439.016,1.792219,-10.35732,-2.063802,-2.322376,-0.4452805,-0.06072007,0.9139969,506,818,106
2439.02,1.796125,-10.21845,-1.991976,-2.27928,-0.2972088,-0.0330232,0.9629991,487,782,118
2439.023,1.800031,-9.89763,-1.82917,-2.097321,-0.2247708,-0.02024002,1.002414,483,790,121
2439.027,1.803937,-9.548076,-1.628057,-2.011129,-0.1917476,0.006391587,1.045024,476,794,120
2439.031,1.807844,-9.165004,-1.398214,-1.8579,-0.2098571,0.05006743,1.098288,468,818,102
2439.035,1.81175,-8.968679,-1.039084,-1.561019,-0.2556635,0.07669904,1.120658,480,801,115
2439.039,1.815656,-8.887277,-0.7661445,-1.450886,-0.3270362,0.09800433,1.137702,477,786,135
2439.043,1.819562,-8.882488,-0.4118027,-1.192312,-0.4122573,0.1278317,1.145159,486,764,114
2439.047,1.823469,-9.155427,0.1628057,-0.9720459,-0.5624596,0.1225054,1.135572,486,811,121
2439.051,1.827375,-9.394847,0.4884171,-1.086968,-0.6838998,0.1118528,1.115332,506,812,135
2439.055,1.831281,-9.859322,0.6799533,-1.340753,-0.7904262,0.1022654,1.083374,517,790,117
2439.059,1.835187,-10.48181,0.8810662,-1.877054,-0.9139969,0.04261058,1.029045,497,770,117
2439.062,1.839094,-11.0229,1.072602,-2.403778,-1.004544,-0.01917476,0.9843043,477,805,108
2439.066,1.843,-11.50653,1.177947,-3.155558,-1.0887,-0.09054748,0.9310411,496,772,121
2439.07,1.846906,-11.88961,1.268927,-3.993528,-1.171791,-0.169377,0.8799084,498,793,118
2439.074,1.850812,-12.13381,1.283292,-4.927267,-1.266599,-0.2673814,0.8213189,518,760,123
2439.078,1.854719,-12.06199,1.264138,-5.24809,-1.320928,-0.3451457,0.7968178,472,784,120
2439.082,1.858625,-11.91355,1.005565,-5.410896,-1.362473,-0.4111921,0.7893609,429,797,136
2439.086,1.862531,-11.57836,0.3639187,-5.233725,-1.386974,-0.4878911,0.7872304,455,774,120
2439.09,1.866437,-11.37246,-0.3303998,-4.783615,-1.372061,-0.5241101,0.7819041,461,778,124
2439.094,1.870344,-10.94629,-1.01993,-4.151546,-1.335842,-0.551807,0.7712515,459,791,113
2439.098,1.87425,-10.56322,-1.862689,-3.466804,-1.264469,-0.5645902,0.7542072,478,749,117
2439.102,1.878156,-10.16578,-2.992752,-2.226608,-1.144094,-0.5869607,0.7115966,496,797,95
2439.105,1.882062,-9.89763,-3.701436,-1.35033,-1.06846,-0.5763081,0.6700513,496,771,111
2439.109,1.885969,-9.691728,-4.256891,-0.7517793,-1.000283,-0.5592638,0.6114618,462,795,122
2439.113,1.889875,-9.615114,-4.46758,-0.3064578,-0.9203885,-0.535828,0.5219796,492,752,74
2439.117,1.893781,-9.753978,-4.209007,-0.3830723,-0.8809737,-0.5251754,0.4527374,453,761,106
2439.121,1.897687,-9.993398,-3.825934,-0.7134721,-0.8628642,-0.5028048,0.3781689,497,768,94
2439.125,1.901594,-10.3621,-3.294421,-1.13964,-0.8490158,-0.4729774,0.3057309,507,801,113
2439.129,1.9055,-10.83616,-2.537854,-1.742979,-0.8277105,-0.4314321,0.2183792,473,806,104
2439.133,1.909406,-11.18571,-2.169147,-2.154781,-0.8170578,-0.4037352,0.1704423,506,811,113
2439.137,1.913312,-11.57836,-2.035071,-2.499547,-0.8127968,-0.3824299,0.1427454,483,813,117
2439.141,1.917219,-11.95185,-2.255338,-2.801216,-0.8426242,-0.3653857,0.1043959,493,795,86
2439.145,1.921125,-12.08593,-2.466028,-2.901772,-0.8745821,-0.370712,0.07989483,484,784,115
2439.148,1.925031,-11.99974,-2.767697,-2.935291,-0.8990832,-0.3856257,0.05965481,490,786,125
2439.152,1.928937,-11.82736,-3.035848,-2.858677,-0.9118664,-0.4186489,0.04580637,463,811,81
2439.156,1.932844,-11.53526,-3.366248,-3.074155,-0.9150622,-0.4676511,0.02876214,438,831,140
2439.16,1.93675,-11.3964,-3.888183,-3.150769,-0.9257148,-0.5049353,0.01278317,460,809,98
2439.164,1.940656,-11.23359,-4.505888,-3.442862,-0.9512811,-0.5241101,-0.01917476,477,804,103
2439.168,1.944562,-11.40119,-5.60722,-3.313575,-1.004544,-0.5145227,-0.1033307,505,774,135
2439.172,1.948469,-11.92312,-6.488286,-2.75812,-1.055677,-0.5017395,-0.1970739,472,774,116
2439.176,1.952375,-12.64617,-7.240066,-2.657564,-1.122789,-0.4708469,-0.3238404,494,755,115
2439.18,1.956281,-13.41711,-7.589619,-2.834735,-1.192031,-0.4580637,-0.5219796,476,811,80
2439.184,1.960187,-13.57991,-7.125144,-3.021482,-1.193096,-0.5187838,-0.6530071,463,796,97
2439.188,1.964094,-13.36922,-6.464344,-3.227384,-1.162203,-0.628506,-0.7403588,491,788,121
2439.191,1.968,-13.13459,-6.315904,-3.069367,-1.111071,-0.7542072,-0.793622,471,817,76
2439.195,1.971906,-12.74673,-6.914454,-2.547431,-0.999218,-0.8724516,-0.8713863,515,798,121
2439.199,1.975812,-12.34929,-7.714118,-2.06859,-0.9108011,-0.8937569,-0.9779128,483,816,75
2439.203,1.979719,-11.87045,-8.532935,-1.881843,-0.8532768,-0.8628642,-1.119593,501,780,77
2439.207,1.983625,-11.30063,-9.658209,-1.762132,-0.7882957,-0.8074704,-1.321993,494,827,96
2439.211,1.987531,-10.79785,-10.10353,-1.297657,-0.773382,-0.793622,-1.473261,494,791,146
2439.215,1.991437,-10.29507,-10.15142,-0.4261679,-0.8021441,-0.8447547,-1.608549,463,834,110
2439.219,1.995344,-9.667786,-9.797073,1.029507,-0.8596684,-0.9576727,-1.716141,474,801,104
2439.223,1.99925,-8.571242,-9.198523,2.513912,-0.9523464,-1.159008,-1.817341,465,804,115
2439.227,2.003156,-7.192182,-8.06846,1.695095,-0.9310411,-1.266599,-1.875931,484,781,116
2439.23,2.007062,-5.765238,-6.842628,0.1819593,-0.8330368,-1.261273,-1.925998,496,791,100
2439.234,2.010969,-4.323928,-5.822698,-0.8714894,-0.660464,-1.069525,-2.019741,529,792,84
2439.238,2.014875,-3.845088,-5.449203,-1.053449,-0.4900216,-0.8341021,-2.13479,480,804,119
2439.242,2.018781,-4.156334,-5.013458,-1.307234,-0.3014698,-0.5741775,-2.300971,505,776,78
2439.246,2.022687,-5.09965,-4.683058,-1.575385,-0.1438107,-0.3217099,-2.51935,514,755,101
2439.25,2.026594,-7.43639,-4.170699,-1.910573,-0.04687164,-0.04474111,-2.857039,514,809,76
2439.254,2.0305,-9.902418,-3.648763,-2.059013,-0.05219796,0.144876,-3.124421,489,802,106
2439.258,2.034406,-13.08192,-2.667141,-2.27928,-0.112918,0.3014698,-3.377954,493,750,135
2439.262,2.038312,-18.33001,-0.593762,-2.719813,-0.2226403,0.5006743,-3.627225,463,790,74
2439.266,2.042219,-23.24291,1.28808,-3.32794,-0.2141182,0.7041398,-3.650661,485,756,65
2439.27,2.046125,-30.52128,6.406884,-5.046977,-0.1725728,0.9853696,-3.440804,502,783,102
2439.273,2.050031,-37.14843,10.53928,-5.798756,-0.2524677,1.341168,-2.892193,504,801,85
2439.277,2.053937,-38.99676,12.72279,-2.523489,-0.5986786,1.097222,-2.206163,515,785,83
2439.281,2.057844,-35.45813,11.42513,0.6368576,-0.9693906,-0.03408846,-2.13479,503,784,125
2439.285,2.06175,-30.10948,10.51055,0.7086837,-1.260208,-1.518002,-2.441586,489,779,107
2439.289,2.065656,-21.96441,11.15219,-2.791639,-1.555286,-2.836799,-2.898585,532,784,74
2439.293,2.069562,-15.64371,11.09952,-4.975151,-1.695901,-2.805907,-2.957174,530,782,84
2439.297,2.073469,-9.773131,9.222465,-6.004658,-1.600027,-2.029329,-2.789928,458,772,93
2439.301,2.077375,-5.559336,6.14831,-5.501875,-1.23038,-0.8863,-2.541721,521,806,84
2439.305,2.081281,-3.979163,2.178724,-2.571373,-0.5379585,0.495348,-2.27647,487,776,126
2439.309,2.085187,-5.693412,0.06224924,-0.521936,-0.128897,1.148355,-2.163552,520,789,79
2439.312,2.089094,-9.011775,-1.599327,0.5315128,0.05858954,1.488174,-2.117746,495,824,114
2439.316,2.093,-14.07791,-3.260903,0.4932055,0.002130529,1.634116,-2.13479,502,779,85
2439.32,2.096906,-17.62132,-4.027047,0.1053449,-0.1896171,1.638377,-2.194445,490,753,84
2439.324,2.100812,-20.48479,-4.209007,0.1053449,-0.4506069,1.57233,-2.281796,517,800,91
2439.328,2.104719,-22.15594,-3.663129,0.9672575,-0.7222493,1.373126,-2.388323,493,789,135
2439.332,2.108625,-21.24615,-2.274492,2.030283,-1.004544,0.8351673,-2.516155,534,768,52
2439.336,2.112531,-18.80885,-1.154005,2.63841,-1.114267,0.2918825,-2.549178,522,730,85
2439.34,2.116437,-15.68681,-0.4022259,2.15957,-1.151551,-0.1747034,-2.508698,540,772,110
2439.344,2.120344,-11.50653,-0.1053449,0.5123592,-1.092961,-0.3802994,-2.413889,529,773,122
2439.348,2.12425,-9.011775,-0.1340753,-0.5315128,-0.9672601,-0.1928129,-2.37554,521,779,88
2439.352,2.128156,-7.350199,-0.2154781,-0.7900865,-0.7946873,0.165116,-2.370213,534,797,102
2439.355,2.132062,-6.737283,0.1867477,-0.4788403,-0.5123922,0.6380934,-2.376605,554,748,112
2439.359,2.135969,-7.235277,0.6512229,-0.08619126,-0.2950782,0.8735168,-2.353169,524,781,119
2439.363,2.139875,-8.207323,1.082179,0.1053449,-0.07137272,0.9800433,-2.295645,548,789,98
2439.367,2.143781,-9.255984,1.398214,0.05267244,0.149137,1.004544,-2.205097,526,773,72
2439.371,2.147687,-10.24239,1.666364,0.2106897,0.4186489,0.9491506,-2.080461,506,740,105
2439.375,2.151594,-10.64462,1.771709,0.320823,0.5752428,0.8724516,-1.997371,542,760,83
2439.379,2.1555,-10.60631,1.742979,0.4213795,0.6860303,0.7882957,-1.929194,520,761,115
2439.383,2.159406,-10.1993,1.637634,0.6081272,0.7723167,0.6732471,-1.866343,544,787,97
2439.387,2.163312,-9.80665,1.522712,0.5985504,0.7978831,0.6093313,-1.835451,538,787,68
2439.391,2.167219,-9.370905,1.316811,0.6847417,0.793622,0.572047,-1.824798,525,777,101
2439.395,2.171125,-8.829816,1.144428,0.7469909,0.7723167,0.5613944,-1.825863,524,764,87
2439.398,2.175031,-8.408436,1.072602,0.9528923,0.737163,0.5795039,-1.83332,533,769,86
2439.402,2.178937,-8.149862,1.149217,1.039084,0.7243798,0.6050702,-1.840777,526,802,128
2439.406,2.182844,-7.924807,1.316811,1.16837,0.7094661,0.6306365,-1.839712,554,796,104
2439.41,2.18675,-7.651869,1.508347,1.254562,0.7073356,0.6263755,-1.829059,515,753,96
2439.414,2.190656,-7.5561,1.733402,1.158794,0.7222493,0.608266,-1.822667,556,755,67
2439.418,2.194562,-7.465121,1.939303,1.216254,0.757403,0.5805691,-1.819472,572,790,133
2439.422,2.198469,-7.383718,2.130839,1.23062,0.8223841,0.5645902,-1.808819,533,778,118
2439.426,2.202375,-7.240066,2.25055,1.374272,0.9651296,0.5432849,-1.786448,562,780,81
2439.43,2.206281,-7.153875,2.240973,1.37906,1.112136,0.5454154,-1.756621,565,774,106
2439.434,2.210187,-7.110779,2.212242,1.426944,1.266599,0.5539375,-1.727859,553,812,74
2439.438,2.214094,-7.000646,2.044648,1.522712,1.458347,0.5773733,-1.687379,562,795,115
2439.441,2.218,-6.828263,1.824382,1.412579,1.591505,0.5816344,-1.65329,550,796,123
2439.445,2.221906,-6.861782,1.632846,1.292869,1.705488,0.5848302,-1.622398,556,737,65
2439.449,2.225812,-6.890512,1.431733,1.072602,1.799232,0.5848302,-1.584048,568,751,95
2439.453,2.229719,-6.919243,1.331176,0.7326257,1.892975,0.5699165,-1.53185,569,785,99
2439.457,2.233625,-7.086837,1.278504,0.5027823,1.941977,0.5550028,-1.48924,554,785,64
2439.461,2.237531,-7.240066,1.240196,0.2298434,1.987783,0.5336975,-1.44876,552,763,102
2439.465,2.241437,-7.374141,1.331176,-0.1915361,2.054895,0.5113269,-1.385909,534,784,61
2439.469,2.245344,-7.455544,1.321599,-0.4261679,2.102832,0.4889564,-1.327319,545,747,76
2439.473,2.24925,-7.517793,1.431733,-0.6751649,2.144377,0.4719121,-1.266599,568,810,144
2439.477,2.253156,-7.589619,1.584961,-0.9337386,2.17527,0.4538026,-1.202684,579,770,77
2439.48,2.257062,-7.661445,1.68073,-1.316811,2.207228,0.4367584,-1.10681,518,766,96
2439.484,2.260969,-7.680599,1.862689,-1.517924,2.221076,0.4239752,-1.036502,542,751,112
2439.488,2.264875,-7.742848,2.001553,-1.666364,2.218946,0.4101268,-0.9693906,552,776,90
2439.492,2.268781,-7.718906,2.284068,-1.972822,2.185923,0.3920173,-0.8767126,586,790,90
2439.496,2.272687,-7.603984,2.542642,-2.063802,2.127333,0.3781689,-0.8117315,593,802,80
2439.5,2.276594,-7.52737,2.82037,-2.245761,2.048504,0.3589941,-0.7488809,563,765,79
2439.504,2.2805,-7.28795,3.227384,-2.466028,1.913215,0.3526025,-0.6732471,566,790,105
2439.508,2.284406,-7.192182,3.725378,-2.580949,1.803493,0.3419499,-0.6199839,595,760,106
2439.512,2.288312,-6.871359,4.189853,-2.676717,1.686314,0.3472762,-0.5581986,534,779,87
2439.516,2.292219,-6.617573,4.620809,-2.887407,1.559547,0.3536678,-0.5017395,546,810,89
2439.52,2.296125,-6.066907,5.204994,-3.069367,1.394431,0.370712,-0.4420847,568,787,99
2439.523,2.300031,-5.741296,5.72693,-3.117251,1.28897,0.3962784,-0.4058658,549,774,124
2439.527,2.303937,-5.372589,6.23929,-3.112462,1.197357,0.42291,-0.3675162,546,778,107
2439.531,2.307844,-5.118803,7.125144,-3.414132,1.100418,0.4783037,-0.3036004,545,776,124
2439.535,2.31175,-5.09965,7.73806,-3.562572,1.020523,0.5400891,-0.2290319,565,753,96
2439.539,2.315656,-4.91769,8.025364,-3.610456,0.9363674,0.6103965,-0.1565939,566,772,76
2439.543,2.319562,-4.903325,8.389283,-3.591302,0.8372978,0.6668555,-0.0958738,561,793,40
2439.547,2.323469,-5.114015,8.676587,-3.380613,0.6572682,0.7190535,-0.01704423,587,774,103
2439.551,2.327375,-5.48751,8.815451,-3.213019,0.4814995,0.7616641,0.05539375,534,779,92
2439.555,2.331281,-6.033388,8.829816,-3.011906,0.257794,0.8223841,0.1278317,567,773,121
2439.559,2.335187,-6.766014,8.963891,-2.916138,-0.1395496,0.9182579,0.181095,568,780,114
2439.562,2.339094,-7.292738,9.14585,-2.834735,-0.5177185,1.013066,0.2066613,568,787,88
2439.566,2.343,-7.699753,9.433155,-2.681506,-0.9416938,1.124919,0.2364887,557,786,106
2439.57,2.346906,-8.2169,9.524134,-2.322376,-1.363538,1.257012,0.2769688,575,838,104
2439.574,2.350812,-8.686164,9.883264,-1.058237,-1.822667,1.455151,0.3920173,584,817,121
2439.578,2.354719,-9.107543,9.691728,0.4453215,-2.016546,1.567004,0.551807,560,765,77
2439.582,2.358625,-9.639056,9.2081,2.293645,-2.03359,1.622398,0.7669904,528,804,100
2439.586,2.362531,-10.1179,7.905654,4.845864,-1.787514,1.540372,1.099353,522,762,133
2439.59,2.366437,-10.43872,6.675034,6.258443,-1.47113,1.345429,1.363538,578,832,139
2439.594,2.370344,-10.62547,5.257667,6.828263,-1.121723,1.051416,1.600027,580,782,87
2439.598,2.37425,-10.90798,3.696647,6.588843,-0.7691209,0.7307714,1.805623,575,777,104
2439.602,2.378156,-11.42513,1.359907,6.086061,-0.2535329,0.3653857,2.065548,553,795,109
2439.605,2.382062,-11.9327,-0.7134721,6.435614,0.1938781,0.1374191,2.243447,550,787,98
2439.609,2.385969,-12.69406,-2.844312,7.829039,0.6924219,-0.07137272,2.378735,547,768,112
2439.613,2.389875,-13.72356,-5.300762,10.88883,1.389105,-0.4250405,2.488458,534,807,106
2439.617,2.393781,-14.37958,-7.000646,13.51287,1.886583,-0.7563377,2.522546,563,772,93
2439.621,2.397687,-14.88236,-8.825027,15.37077,2.342516,-1.089766,2.53746,583,797,98
2439.625,2.401594,-15.24149,-11.01812,16.54393,2.762231,-1.379517,2.531068,544,756,89
2439.629,2.4055,-15.13135,-14.76265,15.61498,3.144661,-1.614941,2.501241,565,788,112
2439.633,2.409406,-14.97813,-19.02911,12.23437,3.109507,-1.602158,2.417085,521,805,80
2439.637,2.413312,-14.28381,-24.72731,5.980716,2.773949,-1.304949,2.239186,497,771,71
2439.641,2.417219,-12.18649,-33.58107,-5.837064,1.946238,-0.3834952,1.666074,551,784,101
2439.645,2.421125,-10.01255,-38.75734,-15.55752,1.146225,0.6455502,1.006675,535,774,108
2439.648,2.425031,-9.11712,-41.74051,-21.49514,0.1384844,1.594701,0.1928129,589,797,88
2439.652,2.428937,-10.99896,-41.76924,-25.25883,-1.124919,2.123072,-0.7382283,579,816,76
2439.656,2.432844,-13.07234,-34.50523,-24.41607,-1.740642,2.505502,-1.904693,534,778,93
2439.66,2.43675,-14.26465,-26.65704,-20.38423,-2.251969,2.734534,-2.530003,508,786,88
2439.664,2.440656,-14.52323,-19.93891,-14.64294,-2.796319,2.888997,-2.917759,550,798,108
2439.668,2.444562,-13.3357,-12.76588,-6.943185,-3.398194,2.794189,-3.129747,554,785,77
2439.672,2.448469,-12.12424,-8.341399,-2.207454,-3.530286,2.469283,-3.053048,513,751,90
2439.676,2.452375,-10.95587,-4.841076,0.6272808,-3.307646,1.963282,-2.785667,569,750,118
2439.68,2.456281,-9.332598,-1.264138,1.393425,-2.689793,1.1899,-2.247708,552,815,91
2439.684,2.460187,-7.675811,0.4596867,0.2681506,-2.184857,0.721184,-1.767274,529,793,114
2439.688,2.464094,-5.913678,0.7374141,-1.532289,-1.670335,0.427171,-1.238903,520,783,105
2439.691,2.468,-4.582502,-0.3351882,-3.39019,-1.146225,0.2705772,-0.7243798,509,812,93
2439.695,2.471906,-3.74932,-2.834735,-5.070919,-0.5113269,0.1427454,-0.2024002,546,773,132
2439.699,2.475812,-4.22816,-4.544195,-5.875371,-0.2066613,0.02769688,0.03728426,558,779,74
2439.703,2.479719,-5.990293,-5.420473,-6.402095,-0.1459412,-0.1107875,0.1608549,561,798,116
2439.707,2.483625,-10.74518,-5.200206,-7.441179,-0.4495416,-0.2098571,0.2460761,575,828,126
2439.711,2.487531,-17.08981,-3.677494,-8.815451,-0.8426242,-0.07350325,0.3046656,570,792,109
2439.715,2.491437,-25.47431,-0.6224924,-9.576807,-1.159008,0.3685815,0.3973436,532,776,107
2439.719,2.495344,-32.77183,3.270479,-7.321469,-1.249555,0.9938917,0.628506,558,774,157
2439.723,2.49925,-28.32819,6.540959,5.621585,-0.9885654,0.978978,1.267665,511,781,85
2439.727,2.503156,-20.62365,6.502652,14.60463,-0.5528722,-0.2450108,1.839712,506,785,105
2439.73,2.507062,-15.27501,6.042965,15.88313,-0.05645902,-1.822667,2.200836,541,786,95
2439.734,2.510969,-10.25676,4.616021,8.274361,0.2705772,-2.668487,1.961152,523,812,116
2439.738,2.514875,-6.842628,2.896984,2.097321,0.2034655,-2.016546,1.422128,557,787,124
2439.742,2.518781,-6.483498,0.4644751,-1.359907,-0.02237055,-0.9086706,0.9321064,530,821,96
2439.746,2.522687,-8.66701,-2.408567,-0.7900865,-0.1438107,0.07882957,0.588026,540,806,97
2439.75,2.526594,-12.15776,-5.793968,5.056554,0.46339,0.7968178,0.3472762,543,804,105
2439.754,2.5305,-13.50809,-8.293515,8.513781,1.647964,0.9544769,0.3600594,538,807,100
2439.758,2.534406,-13.02925,-10.31901,9.945514,3.271427,0.9608685,0.4964132,554,738,59
2439.762,2.538312,-11.12825,-13.07713,10.46266,5.159076,0.6103965,0.5912218,557,818,112
2439.766,2.542219,-10.22324,-15.0308,6.081272,5.890912,-0.06924219,0.4303668,525,771,63
2439.77,2.546125,-9.528923,-15.04037,-1.091756,5.84191,-0.8245147,0.05006743,577,798,112
2439.773,2.550031,-8.844181,-13.39795,-9.2081,4.995025,-1.215467,-0.3834952,503,757,78
2439.777,2.553937,-8.882488,-10.04607,-9.653421,3.256513,-0.5209143,-0.7510114,523,793,121
2439.781,2.557844,-9.500192,-8.51857,-0.9241618,2.016546,0.3387541,-0.829841,556,785,120
2439.785,2.56175,-10.93671,-7.120356,4.170699,1.114267,0.5422196,-0.8511463,518,789,74
2439.789,2.565656,-13.57034,-3.213019,-3.859453,0.4314321,-0.1043959,-0.9917612,551,765,102
2439.793,2.569562,-16.17044,3.217807,-10.73081,0.02876214,-0.4367584,-1.133441,535,778,117
2439.797,2.573469,-18.97165,11.73638,-11.09952,-0.5219796,-0.3153183,-1.143029,546,775,120
2439.801,2.577375,-18.56943,20.32677,-2.37026,-0.9757822,0.02237055,-0.9203885,561,829,82
2439.805,2.581281,-14.31254,29.01772,2.576161,-0.5390238,-0.05539375,-0.2428803,553,778,88
2439.809,2.585187,-8.657433,32.29299,2.154781,0.04687164,-0.535828,0.4175837,556,801,73
2439.812,2.589094,-3.916914,31.76148,-2.073379,0.1768339,-1.10681,0.9491506,519,803,88
2439.816,2.593,-1.039084,28.3665,-6.411672,-0.6860303,-1.351821,1.36993,584,752,133
2439.82,2.596906,-0.818817,24.92364,-6.320692,-1.654356,-0.9150622,1.606419,536,821,121
2439.824,2.600812,-2.542642,20.27889,-5.961562,-2.313754,-0.1267665,1.801362,557,764,90
2439.828,2.604719,-6.842628,14.8632,-4.58729,-2.225337,0.7829694,1.947303,523,798,121
2439.832,2.608625,-10.47224,12.49294,-4.285621,-1.684183,0.9512811,2.026133,545,822,149
2439.836,2.612531,-14.08748,10.41478,-3.639187,-1.076982,0.8074704,2.176335,536,777,78
2439.84,2.616437,-17.20473,7.082049,-1.867477,-0.5209143,0.572047,2.412824,557,757,145
2439.844,2.620344,-18.90462,1.154005,1.369483,0.2727077,0.3398194,2.744121,544,791,111
2439.848,2.62425,-18.92856,-3.931279,2.485181,0.8202536,0.1928129,2.795254,543,786,98
2439.852,2.628156,-18.36353,-8.772355,1.201889,1.064199,0.0660464,2.530003,535,796,112
2439.855,2.632062,-16.41943,-13.57034,-3.174711,0.6189186,-0.0777643,1.829059,547,837,117
2439.859,2.635969,-14.07791,-14.82969,-5.281609,-0.08948221,-0.2109224,1.337972,547,804,135
2439.863,2.639875,-11.54484,-13.7906,-4.553772,-0.8127968,-0.4378237,1.054612,530,787,114
2439.867,2.643781,-9.739612,-10.95587,-2.145205,-1.323058,-0.5986786,0.9864349,548,811,98
2439.871,2.647687,-8.058883,-6.215348,-0.1340753,-1.562743,-0.5336975,1.067395,529,785,106
2439.875,2.651594,-7.393295,-3.126827,-0.4836287,-1.28897,-0.3973436,1.16966,551,766,105
2439.879,2.6555,-7.283161,-0.794875,-1.561019,-0.777643,-0.2119876,1.261273,542,815,108
2439.883,2.659406,-8.494627,1.321599,-2.226608,-0.04048005,-0.03834952,1.324124,552,796,132
2439.887,2.663312,-9.931148,2.355894,-1.924938,0.3802994,-0.01917476,1.348625,547,754,94
2439.891,2.667219,-11.10431,3.040636,-1.355118,0.6231797,-0.08415589,1.370995,524,802,122
2439.895,2.671125,-11.38203,3.476381,-1.125275,0.6988135,-0.2098571,1.398692,544,782,97
2439.898,2.675031,-10.80264,4.031836,-1.254562,0.5965481,-0.3877563,1.439172,471,804,91
2439.902,2.678937,-9.916783,4.376601,-1.58975,0.4282363,-0.4303668,1.473261,535,779,97
2439.906,2.682844,-9.217676,4.697424,-1.963245,0.2460761,-0.3813647,1.514806,517,772,124
2439.91,2.68675,-8.978256,5.003881,-2.30801,0.04367584,-0.2609898,1.579787,525,795,120
2439.914,2.690656,-9.121908,5.104438,-2.365471,-0.07243798,-0.1874865,1.635181,535,789,100
2439.918,2.694562,-9.562441,4.922479,-2.135628,-0.1576591,-0.1544633,1.701227,524,849,93
2439.922,2.698469,-9.868899,4.453215,-2.03986,-0.2194445,-0.149137,1.754491,550,803,106
2439.926,2.702375,-9.931148,3.576937,-1.810016,-0.2854909,-0.1778992,1.79284,490,759,96
2439.93,2.706281,-9.849746,2.863465,-1.661576,-0.3174488,-0.1938781,1.803493,553,809,96
2439.934,2.710187,-9.667786,2.015918,-1.465251,-0.3259709,-0.2034655,1.798166,513,779,91
2439.938,2.714094,-9.428366,0.9959879,-1.345541,-0.309992,-0.2109224,1.778992,502,825,81
2439.941,2.718,-9.227253,0.2537854,-1.249773,-0.2833603,-0.2151834,1.760882,547,789,128
2439.945,2.721906,-8.959103,-0.4644751,-1.173159,-0.2535329,-0.221575,1.740642,513,774,120
2439.949,2.725812,-8.690952,-1.000776,-1.115698,-0.2300971,-0.2269013,1.720402,495,817,136
2439.953,2.729719,-8.384494,-1.70946,-1.077391,-0.2002697,-0.2354234,1.689509,512,799,91
2439.957,2.733625,-8.078036,-1.982399,-1.158794,-0.1789644,-0.2343582,1.668204,530,814,109
2439.961,2.737531,-7.584831,-2.106897,-1.158794,-0.1597897,-0.2269013,1.650095,511,788,99
2439.965,2.741437,-7.144298,-1.924938,-1.201889,-0.1480718,-0.1896171,1.637311,497,795,133
2439.969,2.745344,-6.943185,-1.666364,-1.235408,-0.1395496,-0.1544633,1.635181,525,779,118
2439.973,2.74925,-6.92882,-1.297657,-1.211466,-0.1246359,-0.1012001,1.629855,497,817,114
2439.977,2.753156,-7.244854,-0.8619126,-1.120486,-0.08948221,-0.01917476,1.625594,494,802,102
2439.98,2.757062,-7.64708,-0.2873042,-1.029507,-0.05858954,0.03941478,1.622398,497,784,90
2439.984,2.760969,-8.192958,0.1340753,-0.8714894,-0.02343582,0.08202536,1.613876,532,778,102
2439.988,2.764875,-8.652645,0.4644751,-0.7038953,0.007456851,0.1065264,1.606419,479,818,85
2439.992,2.768781,-9.279926,0.8379706,-0.4884171,0.04474111,0.1320928,1.608549,522,808,97
2439.996,2.772687,-9.576807,0.9624691,-0.3256114,0.06817692,0.1193096,1.609615,526,779,63
2440,2.776594,-9.581595,0.9241618,-0.3064578,0.08735168,0.09800433,1.608549,547,801,112
2440.004,2.7805,-9.528923,0.7326257,-0.4309563,0.1171791,0.08309063,1.596831,523,840,94
2440.008,2.784406,-9.361328,0.4596867,-0.6368576,0.1320928,0.06072007,1.584048,491,778,90
2440.012,2.788312,-9.112332,0.1244985,-0.9241618,0.1331581,0.04580637,1.573396,536,795,103
2440.016,2.792219,-8.853758,-0.3112462,-1.197101,0.112918,0.03195793,1.555286,491,785,88
2440.02,2.796125,-8.619126,-0.7038953,-1.35033,0.06391587,0.04261058,1.515871,494,806,63
2440.023,2.800031,-8.489839,-0.7661445,-1.340753,0.003195793,0.03621899,1.479652,506,790,109
2440.027,2.803937,-8.398859,-0.9097966,-1.244985,-0.07456851,0.02663161,1.442368,518,801,92
2440.031,2.807844,-8.312668,-0.8810662,-1.278504,-0.1864213,0.0330232,1.397627,522,812,118
2440.035,2.81175,-8.288726,-0.914585,-1.326388,-0.2812298,0.03089267,1.360343,492,799,64
2440.039,2.815656,-8.231265,-0.9816227,-1.489193,-0.3856257,0.03621899,1.323058,537,815,121
2440.043,2.819562,-8.207323,-1.106121,-1.73819,-0.4836301,0.04687164,1.2911,497,767,94
2440.047,2.823469,-8.178593,-1.264138,-2.020706,-0.6050702,0.05965481,1.24849,521,820,115
2440.051,2.827375,-8.236054,-1.388637,-2.207454,-0.6838998,0.06072007,1.214401,485,794,98
2440.055,2.831281,-8.279149,-1.426944,-2.217031,-0.7488809,0.04580637,1.178182,476,804,91
2440.059,2.835187,-8.341399,-1.37906,-2.164358,-0.8202536,0.02024002,1.139833,483,816,96
2440.062,2.839094,-8.475474,-1.37906,-2.269703,-0.8596684,-0.01065264,1.111071,483,830,66
2440.066,2.843,-8.580819,-1.201889,-2.322376,-0.8905611,-0.04900216,1.082309,512,801,79
2440.07,2.846906,-8.738836,-1.010353,-2.413355,-0.9257148,-0.08735168,1.055677,479,832,88
2440.074,2.850812,-8.973468,-0.7326257,-2.389413,-0.9843043,-0.1267665,1.012001,504,828,99
2440.078,2.854719,-9.093178,-0.4596867,-2.365471,-1.043959,-0.1608549,0.9821738,523,770,91
2440.082,2.858625,-9.212888,-0.1771709,-2.284068,-1.110006,-0.1917476,0.9555422,498,796,82
2440.086,2.862531,-9.528923,0.1484405,-2.078167,-1.197357,-0.2205097,0.9310411,478,786,96
2440.09,2.866437,-9.682152,0.3160346,-1.819593,-1.259143,-0.2471413,0.9203885,534,842,117
2440.094,2.870344,-9.940725,0.4836287,-1.647211,-1.300688,-0.257794,0.9171927,495,778,84
2440.098,2.87425,-10.16099,0.593762,-1.517924,-1.30921,-0.2545982,0.9214537,495,786,87
2440.102,2.878156,-10.47224,0.5602432,-1.446098,-1.260208,-0.2226403,0.9502159,469,809,116
2440.105,2.882062,-10.64462,0.4979939,-1.431733,-1.183509,-0.1917476,0.9864349,474,811,99
2440.109,2.885969,-10.81221,0.4788403,-1.335965,-1.074852,-0.1640507,1.034372,524,811,99
2440.113,2.889875,-11.12825,0.1580173,-1.565808,-0.8958874,-0.1214401,1.107875,482,755,66
2440.117,2.893781,-11.2719,-0.1436521,-1.637634,-0.7488809,-0.08415589,1.161138,505,813,93
2440.121,2.897687,-11.3533,-0.3687071,-1.8579,-0.6072007,-0.05113269,1.214401,497,830,123
2440.125,2.901594,-11.15219,-0.56982,-2.059013,-0.495348,-0.03515373,1.274056,483,820,97
2440.129,2.9055,-10.92235,-0.7900865,-2.298434,-0.4005394,-0.02130529,1.353951,504,797,82
2440.133,2.909406,-10.53449,-0.8858546,-2.446874,-0.3813647,-0.0181095,1.402953,479,786,71
2440.137,2.913312,-10.21845,-0.9193734,-2.413355,-0.4122573,-0.01171791,1.447694,484,812,117
2440.141,2.917219,-9.701305,-0.7996634,-2.365471,-0.5017395,-0.02130529,1.494566,443,808,104
2440.145,2.921125,-9.514557,-0.6943185,-2.260126,-0.6029397,-0.0298274,1.518002,498,840,109
2440.148,2.925031,-9.514557,-0.521936,-2.355894,-0.7190535,-0.03728426,1.518002,488,822,78
2440.152,2.928937,-9.672575,-0.1580173,-2.384625,-0.8713863,-0.05965481,1.493501,478,798,87
2440.156,2.932844,-9.916783,0.01436521,-2.513912,-0.9651296,-0.08309063,1.457282,481,793,101
2440.16,2.93675,-10.46745,0.08140286,-2.466028,-1.02798,-0.112918,1.404019,502,799,74
2440.164,2.940656,-11.18571,0.09097966,-2.446874,-1.080178,-0.1587244,1.339037,485,793,91
2440.168,2.944562,-12.08114,-0.1915361,-2.25055,-1.118528,-0.2620551,1.238903,482,811,77
2440.172,2.948469,-12.42112,-0.3591302,-2.207454,-1.144094,-0.3739078,1.159008,466,789,65
2440.176,2.952375,-12.44506,-0.593762,-2.384625,-1.173921,-0.5028048,1.090831,475,810,87
2440.18,2.956281,-12.05241,-1.307234,-2.681506,-1.197357,-0.6572682,1.022654,493,820,92
2440.184,2.960187,-11.54005,-2.087744,-2.920926,-1.172856,-0.7254451,0.9779128,508,798,99
2440.188,2.964094,-10.91277,-2.935291,-2.944868,-1.117462,-0.7478156,0.9342369,470,820,87
2440.191,2.968,-10.20888,-3.806781,-2.734178,-1.038633,-0.7403588,0.8873653,476,839,70
2440.195,2.971906,-9.514557,-4.869806,-2.27928,-0.9203885,-0.7020093,0.8255799,498,805,84
2440.199,2.975812,-9.030929,-5.406107,-2.082955,-0.8351673,-0.6636597,0.7691209,466,807,84
2440.203,2.979719,-8.767566,-5.640739,-2.116474,-0.7595335,-0.6221144,0.7073356,469,805,113
2440.207,2.983625,-8.604761,-5.434838,-2.312799,-0.6892261,-0.551807,0.6146576,506,800,70
2440.211,2.987531,-8.710106,-5.027823,-2.528277,-0.6466155,-0.499609,0.5454154,490,786,92
2440.215,2.991437,-9.112332,-4.395754,-2.762909,-0.6050702,-0.4559332,0.4836301,512,845,70
2440.219,2.995344,-9.811438,-3.768473,-3.069367,-0.5709817,-0.4101268,0.4346279,480,787,64
2440.223,2.99925,-10.72602,-3.189077,-3.797204,-0.5528722,-0.3557983,0.366451,489,800,118
2440.227,3.003156,-11.37246,-2.834735,-4.242525,-0.5571333,-0.3174488,0.3185141,458,827,81
2440.23,3.007062,-11.9758,-2.667141,-4.544195,-0.5709817,-0.298274,0.2886867,471,833,96
2440.234,3.010969,-12.49773,-2.60968,-4.759673,-0.5912218,-0.3227751,0.2684466,479,834,85
2440.238,3.014875,-12.62223,-2.748544,-4.788403,-0.6093313,-0.3696468,0.2673814,481,847,103
2440.242,3.018781,-12.52167,-2.935291,-4.817134,-0.6167881,-0.4186489,0.2599245,509,818,118
2440.246,3.022687,-12.20564,-3.112462,-4.903325,-0.6306365,-0.4495416,0.2620551,533,793,83
2440.25,3.026594,-11.56399,-3.466804,-4.91769,-0.6157228,-0.4719121,0.2609898,482,809,109
2440.254,3.0305,-11.25275,-3.892972,-5.046977,-0.5912218,-0.4825648,0.2492719,475,819,81
2440.258,3.034406,-11.315,-4.568137,-4.965574,-0.5773733,-0.4814995,0.2119876,471,818,90
2440.262,3.038312,-11.74116,-5.884948,-4.400543,-0.6199839,-0.4527374,0.1012001,486,807,86
2440.266,3.042219,-12.28704,-6.770802,-3.830723,-0.7115966,-0.4207795,-0.03728426,496,819,103
2440.27,3.046125,-12.62702,-7.158663,-3.485958,-0.8106662,-0.3962784,-0.2034655,475,806,67
2440.273,3.050031,-12.42591,-6.646304,-3.198653,-0.8543421,-0.4250405,-0.3568636,473,799,95
2440.277,3.053937,-12.08593,-5.434838,-3.337517,-0.8032094,-0.5273059,-0.4900216,506,826,83
2440.281,3.057844,-11.8082,-4.869806,-3.399766,-0.7115966,-0.5869607,-0.5486112,488,811,82
2440.285,3.06175,-11.62624,-5.090073,-3.169923,-0.5944176,-0.6189186,-0.6146576,492,821,34
2440.289,3.065656,-11.59272,-6.191405,-2.552219,-0.4410195,-0.6061355,-0.7765778,451,812,86
2440.293,3.069562,-11.61667,-7.37893,-1.996764,-0.3451457,-0.5592638,-0.9470201,471,792,77
2440.297,3.073469,-11.62624,-8.542512,-1.556231,-0.2695119,-0.5049353,-1.12918,476,804,67
2440.301,3.077375,-11.48259,-9.351752,-1.01993,-0.221575,-0.4846953,-1.301753,498,846,98
2440.305,3.081281,-11.37725,-9.859322,-0.7469909,-0.2066613,-0.5166533,-1.494566,519,830,109
2440.309,3.085187,-10.99896,-9.572018,-0.5315128,-0.2183792,-0.5826996,-1.631985,473,838,87
2440.312,3.089094,-10.50097,-8.90643,-0.05746084,-0.2471413,-0.6721819,-1.765143,462,787,82
2440.316,3.093,-9.504981,-7.757213,2.03986,-0.3259709,-0.8127968,-1.918541,477,841,67
2440.32,3.096906,-8.710106,-6.981492,3.830723,-0.4452805,-0.9267801,-2.001632,479,815,101
2440.324,3.100812,-7.627926,-5.942409,3.797204,-0.5283712,-1.017328,-2.058091,456,809,83
2440.328,3.104719,-6.191405,-4.582502,1.47004,-0.4942827,-1.034372,-2.118811,482,822,91
2440.332,3.108625,-5.425261,-4.07972,0.09576807,-0.3834952,-0.8990832,-2.173139,473,814,92
2440.336,3.112531,-5.181052,-3.701436,-0.5123592,-0.1970739,-0.6593987,-2.260491,517,790,92
2440.34,3.116437,-5.530606,-3.270479,-0.9050082,-0.001065264,-0.3675162,-2.393649,497,816,90
2440.344,3.120344,-7.125144,-2.858677,-1.134852,0.1725728,0.006391587,-2.666357,488,827,95
2440.348,3.12425,-9.2081,-2.379836,-1.412579,0.2396845,0.2311624,-2.913498,508,826,83
2440.352,3.128156,-11.92791,-1.446098,-1.92015,0.2631203,0.4293016,-3.157444,480,836,61
2440.355,3.132062,-16.96052,0.8475474,-2.111686,0.2109224,0.6402239,-3.38328,476,798,77
2440.359,3.135969,-21.67231,2.341529,-2.475605,0.1107875,0.7946873,-3.436543,479,780,87
2440.363,3.139875,-27.68176,4.927267,-3.39019,0.1214401,1.012001,-3.380084,517,845,62
2440.367,3.143781,-34.16526,9.169792,-4.496311,-0.03621899,1.326254,-3.078614,441,823,87
2440.371,3.147687,-37.37349,11.9327,-2.882619,-0.4612595,1.197357,-2.533199,531,836,58
2440.375,3.151594,-35.39109,11.95664,0.1292869,-0.86606,0.3760383,-2.398976,472,812,54
2440.379,3.1555,-31.2587,11.75553,1.158794,-1.229315,-0.8916263,-2.563026,506,766,68
2440.383,3.159406,-24.33467,12.37323,-1.086968,-1.594701,-2.247708,-2.897519,491,759,78
2440.387,3.163312,-18.51197,12.21522,-3.347094,-1.780057,-2.481001,-2.98061,506,781,75
2440.391,3.167219,-12.89996,10.38605,-4.247314,-1.785383,-2.019741,-2.89965,498,775,55
2440.395,3.171125,-8.69574,7.302315,-3.313575,-1.544633,-1.170726,-2.730273,517,799,96
2440.398,3.175031,-6.359,2.700659,-0.914585,-0.9310411,0.02769688,-2.468218,500,781,82
2440.402,3.178937,-7.072472,-0.272939,0.6368576,-0.4719121,0.6817692,-2.304167,502,777,87
2440.406,3.182844,-9.299079,-2.724601,1.489193,-0.1704423,1.091896,-2.209358,548,797,35
2440.41,3.18675,-13.23036,-5.046977,1.326388,-0.07243798,1.330515,-2.207228,504,815,88
2440.414,3.190656,-16.01242,-6.014235,0.6943185,-0.2141182,1.384844,-2.27647,483,800,86
2440.418,3.194562,-18.14805,-6.114791,0.3399766,-0.4623248,1.356082,-2.373409,493,799,48
2440.422,3.198469,-19.58936,-5.3678,0.3974375,-0.7297061,1.226119,-2.473544,528,773,92
2440.426,3.202375,-19.23023,-3.313575,1.063026,-0.9906959,0.8490158,-2.567287,496,787,70
2440.43,3.206281,-17.82723,-1.608904,1.187524,-1.064199,0.4665858,-2.586462,542,808,75
2440.434,3.210187,-15.63414,-0.2346318,0.818817,-1.033307,0.1043959,-2.552374,526,790,58
2440.438,3.214094,-12.54083,0.7326257,-0.2346318,-0.8735168,-0.1544633,-2.459696,511,797,80
2440.441,3.218,-10.44351,1.005565,-0.8571242,-0.7115966,-0.1171791,-2.400041,466,786,102
2440.445,3.221906,-8.939949,1.149217,-1.058237,-0.5283712,0.06072007,-2.369148,487,800,98
2440.449,3.225812,-7.958326,1.197101,-0.6081272,-0.334493,0.2961435,-2.359561,514,769,127
2440.453,3.229719,-7.8865,1.613692,-0.2298434,-0.09054748,0.5763081,-2.351039,521,810,97
2440.457,3.233625,-8.293515,1.972822,0.1292869,0.06498113,0.7201188,-2.330799,509,814,78
2440.461,3.237531,-8.868123,2.264915,0.3543418,0.1981392,0.7978831,-2.295645,521,785,89
2440.465,3.241437,-9.59596,2.60968,0.545878,0.334493,0.829841,-2.225337,481,806,94
2440.469,3.245344,-10.06522,2.753332,0.7422025,0.40267,0.8159926,-2.166748,510,805,102
2440.473,3.24925,-10.18493,2.806004,0.8236054,0.4452805,0.7701862,-2.113485,522,803,80
2440.477,3.253156,-10.0748,2.695871,0.9624691,0.4612595,0.6860303,-2.061287,485,806,92
2440.48,3.257062,-9.902418,2.528277,0.9864111,0.4463458,0.6370281,-2.029329,505,790,81
2440.484,3.260969,-9.591172,2.413355,0.9097966,0.42291,0.6040049,-2.009089,511,779,59
2440.488,3.264875,-9.294291,2.082955,0.914585,0.3845605,0.592287,-1.99524,509,759,99
2440.492,3.268781,-8.853758,1.881843,1.015142,0.3217099,0.5858954,-1.99524,512,789,54
2440.496,3.272687,-8.604761,1.82917,0.9816227,0.2769688,0.5954828,-2.003762,533,760,101
2440.5,3.276594,-8.331822,1.733402,0.9959879,0.2503371,0.6125271,-2.017611,532,774,65
2440.504,3.2805,-8.078036,1.886631,1.072602,0.2279666,0.6274408,-2.022937,537,807,85
2440.508,3.284406,-8.030152,1.934515,1.034295,0.2343582,0.6434197,-2.020807,522,778,79
2440.512,3.288312,-7.987057,2.087744,1.015142,0.2673814,0.6519418,-2.019741,516,811,74
2440.516,3.292219,-7.924807,2.193089,1.177947,0.3238404,0.6530071,-2.011219,506,786,92
2440.52,3.296125,-7.809886,2.15957,1.316811,0.4399542,0.6508766,-1.992044,491,775,84
2440.523,3.300031,-7.76679,2.15957,1.441309,0.5507417,0.6530071,-1.97287,554,779,78
2440.527,3.303937,-7.541735,1.900996,1.584961,0.6785734,0.648746,-1.947303,523,776,106
2440.531,3.307844,-7.321469,1.604115,1.690306,0.8681905,0.6466155,-1.919607,533,773,103
2440.535,3.31175,-7.211335,1.37906,1.541866,0.9928265,0.648746,-1.895105,516,744,68
2440.539,3.315656,-7.096414,1.16837,1.422156,1.107875,0.6508766,-1.870604,540,807,87
2440.543,3.319562,-7.010222,0.9911995,1.225831,1.215467,0.6593987,-1.839712,492,800,98
2440.547,3.323469,-7.134721,0.7805097,1.082179,1.34969,0.6636597,-1.782187,558,762,61
2440.551,3.327375,-7.220912,0.6799533,0.9481039,1.449825,0.6530071,-1.736381,510,764,68
2440.555,3.331281,-7.244854,0.6895301,0.8810662,1.545699,0.644485,-1.689509,547,759,92
2440.559,3.335187,-7.383718,0.6368576,0.6560113,1.659682,0.6072007,-1.617071,516,816,96
2440.562,3.339094,-7.493851,0.6847417,0.4788403,1.73212,0.5795039,-1.555286,499,783,78
2440.566,3.343,-7.5561,0.7805097,0.248997,1.79284,0.551807,-1.487109,555,780,57
2440.57,3.346906,-7.666234,0.9576807,-0.01915361,1.829059,0.5219796,-1.418932,534,777,91
2440.574,3.350812,-7.699753,1.216254,-0.3687071,1.835451,0.4740427,-1.334776,575,766,104
2440.578,3.354719,-7.709329,1.532289,-0.7182605,1.818406,0.4506069,-1.26873,559,782,67
2440.582,3.358625,-7.776367,1.790863,-0.9385271,1.780057,0.4218447,-1.195227,558,759,95
2440.586,3.362531,-7.757213,2.245761,-1.249773,1.706554,0.3792341,-1.104679,528,784,89
2440.59,3.366437,-7.608773,2.537854,-1.450886,1.637311,0.3483415,-1.036502,545,768,67
2440.594,3.370344,-7.541735,2.882619,-1.642422,1.573396,0.3259709,-0.9661948,550,800,75
2440.598,3.37425,-7.402872,3.256114,-1.853112,1.514806,0.3089267,-0.8969527,532,769,122
2440.602,3.378156,-7.340622,3.821146,-2.03986,1.451955,0.2929477,-0.7957525,514,773,133
2440.605,3.382062,-7.201759,4.13718,-2.173935,1.417867,0.2929477,-0.7137272,549,798,85
2440.609,3.385969,-7.163451,4.577714,-2.303222,1.393366,0.3014698,-0.628506,555,776,52
2440.613,3.389875,-7.07726,5.195418,-2.461239,1.370995,0.3334278,-0.5123922,560,796,92
2440.617,3.393781,-6.914454,5.72693,-2.446874,1.362473,0.350472,-0.4218447,523,771,86
2440.621,3.397687,-6.799533,6.038177,-2.456451,1.340103,0.3589941,-0.3259709,555,782,86
2440.625,3.401594,-6.531382,6.363788,-2.284068,1.311341,0.3536678,-0.221575,544,811,79
2440.629,3.4055,-6.234501,6.670246,-2.097321,1.284709,0.3366236,-0.1555286,530,752,80
2440.633,3.409406,-5.947197,7.139509,-2.169147,1.246359,0.3046656,-0.0958738,558,791,82
2440.637,3.413312,-5.712565,7.599196,-2.331952,1.184574,0.2727077,-0.0330232,557,772,106
2440.641,3.417219,-5.525817,8.12592,-2.628833,1.04822,0.257794,0.0777643,561,751,81
2440.645,3.421125,-5.305551,8.341399,-2.911349,0.9076053,0.2876214,0.1576591,574,808,88
2440.648,3.425031,-5.238513,8.580819,-3.169923,0.7286409,0.3398194,0.2269013,518,811,50
2440.652,3.428937,-5.382165,8.844181,-3.41892,0.4420847,0.4580637,0.3121225,514,759,110
2440.656,3.432844,-5.343858,8.944737,-3.505111,0.1789644,0.5709817,0.3717773,545,762,107
2440.66,3.43675,-5.410896,9.021352,-3.490746,-0.1161138,0.6881608,0.4346279,549,758,109
2440.664,3.440656,-5.535394,9.069236,-3.677494,-0.4484763,0.813862,0.4825648,578,788,68
2440.668,3.444562,-5.497087,9.457097,-3.907337,-0.9821738,0.9864349,0.5262406,570,758,90
2440.672,3.448469,-5.784391,9.744401,-4.285621,-1.449825,1.143029,0.5731123,529,780,110
2440.676,3.452375,-6.248866,9.931148,-4.683058,-1.936651,1.339037,0.628506,535,743,99
2440.68,3.456281,-7.340622,9.993398,-4.620809,-2.523611,1.695901,0.7510114,550,776,53
2440.684,3.460187,-8.403648,9.825804,-3.883395,-2.827212,2.019741,0.902279,539,792,93
2440.688,3.464094,-9.586383,9.32781,-1.896208,-2.978479,2.295645,1.10894,541,814,79
2440.691,3.468,-10.71645,8.619126,1.067814,-2.997654,2.433064,1.365669,552,791,84
2440.695,3.471906,-11.8082,6.856994,5.114015,-2.777144,2.264752,1.757686,547,798,69
2440.699,3.475812,-12.4307,5.090073,6.876147,-2.37767,1.861017,2.054895,561,776,93
2440.703,3.479719,-13.08671,3.136404,6.722918,-1.842907,1.323058,2.330799,532,775,86
2440.707,3.483625,-13.88158,0.320823,5.209783,-1.072721,0.6540724,2.661031,572,799,86
2440.711,3.487531,-14.29817,-2.264915,5.224148,-0.4910869,0.2663161,2.865561,521,775,145
2440.715,3.491437,-14.84884,-4.788403,7.455544,0.08628642,-0.08735168,3.031743,512,806,120
2440.719,3.495344,-15.58146,-7.149086,11.99974,0.6402239,-0.4985438,3.154248,506,787,112
2440.723,3.49925,-18.11932,-9.270349,22.06975,1.439172,-1.337972,3.24373,508,766,95
2440.727,3.503156,-20.14002,-11.02769,26.54212,2.240251,-2.174205,3.295928,512,768,85
2440.73,3.507062,-20.50394,-13.78581,26.7959,3.115898,-2.846387,3.367301,512,793,86
2440.734,3.510969,-17.90863,-20.53267,21.83991,3.621899,-3.161705,3.396063,527,806,73
2440.738,3.514875,-13.61343,-28.13666,11.5209,3.103115,-2.799515,3.218164,545,783,116
2440.742,3.518781,-8.331822,-38.73818,-8.710106,2.037851,-1.61068,2.657835,492,819,107
2440.746,3.522687,-4.31914,-50.1681,-26.29312,0.660464,0.4175837,1.600027,529,768,77
2440.75,3.526594,-3.203442,-61.41606,-37.71825,-1.269795,3.155313,-0.4516721,503,806,120
2440.754,3.5305,-4.707,-61.22452,-37.60333,-2.188053,4.296211,-2.135855,553,784,87
2440.758,3.534406,-8.044518,-50.50329,-34.34722,-2.311624,4.448544,-3.361975,541,797,110
2440.762,3.538312,-16.37155,-31.2587,-26.94913,-2.241316,4.025634,-4.086354,545,781,93
2440.766,3.542219,-19.86709,-19.77132,-21.19347,-2.736664,3.718838,-4.217382,552,759,89
2440.77,3.546125,-18.50239,-11.37246,-13.64695,-3.298059,3.350257,-4.018177,545,760,114
2440.773,3.550031,-13.85285,-5.659893,-3.53863,-3.370497,2.63866,-3.483415,518,808,116
2440.777,3.553937,-10.85531,-1.149217,0.7086837,-2.836799,1.302818,-2.544917,544,794,72
2440.781,3.557844,-8.279149,1.11091,1.94888,-2.098571,0.3749731,-1.89404,511,773,85
2440.785,3.56175,-6.167463,2.628833,0.9959879,-1.336907,-0.2162487,-1.313471,531,798,114
2440.789,3.565656,-5.123592,3.165135,-2.1883,-0.2865561,-0.4367584,-0.6189186,522,774,117
2440.793,3.569562,-6.938396,2.786851,-5.051766,0.5347627,-0.273773,-0.1917476,544,785,101
2440.797,3.573469,-11.97101,2.5187,-7.651869,1.292166,0.07989483,0.1555286,544,808,96
2440.801,3.577375,-24.30115,2.633622,-9.59596,1.947303,0.7510114,0.592287,540,756,129
2440.805,3.581281,-34.17483,2.82037,-9.500192,2.05383,1.235707,1.019458,550,776,96
2440.809,3.585187,-32.83408,2.552219,-3.691859,1.846103,1.219728,1.663943,526,791,105
2440.812,3.589094,-21.66753,-0.1388637,6.703765,1.393366,-0.06498113,2.39791,538,770,93
2440.816,3.593,-13.5033,-4.041412,10.07959,0.6593987,-2.694054,2.566222,554,755,118
2440.82,3.596906,-12.65096,-2.322376,5.430049,0.04474111,-3.459979,1.89404,537,779,149
2440.824,3.600812,-10.58716,2.887407,-0.009576807,-0.6562029,-2.567287,1.036502,553,760,114
2440.828,3.604719,-9.701305,7.019799,0.3926491,-1.677791,-0.5134575,0.3749731,518,823,112
2440.832,3.608625,-12.87602,5.650316,7.445967,-2.037851,0.4293016,0.1576591,537,762,82
2440.836,3.612531,-16.62055,3.20823,17.93736,-1.467934,0.6966829,-0.1012001,554,782,111
2440.84,3.616437,-18.04749,0.7613561,25.93878,0.07243798,0.4037352,-0.3888215,558,761,57
2440.844,3.620344,-16.84081,-1.853112,27.51417,2.686597,-0.5028048,-0.4846953,530,798,110
2440.848,3.62425,-13.11544,-5.679046,18.27734,4.192881,-0.9118664,-0.3387541,499,758,111
2440.852,3.628156,-7.216124,-9.222465,6.052542,5.085572,-0.5752428,-0.2066613,530,755,66
2440.855,3.632062,-0.9097966,-16.01721,-7.934384,5.637379,0.3888215,-0.2247708,564,745,84
2440.859,3.635969,-1.388637,-18.1672,-13.97256,6.0017,0.3941478,-0.499609,557,802,57
2440.863,3.639875,-4.759673,-16.01721,-19.8192,6.069877,-0.1672465,-0.9129316,534,797,119
2440.867,3.643781,-9.308656,-12.08114,-27.43755,5.666142,-0.6061355,-1.239968,567,760,85
2440.871,3.647687,-12.45464,-4.812345,-10.33337,3.890346,0.2247708,-1.393366,553,774,96
2440.875,3.651594,-11.93749,-3.481169,6.042965,1.327319,0.6934871,-1.319863,529,751,107
2440.879,3.6555,-13.80018,-4.405331,3.543418,-0.7115966,0.2993393,-1.323058,542,801,87
2440.883,3.659406,-24.7752,7.283161,-2.557007,-1.847169,-0.3036004,-1.834385,548,766,99
2440.887,3.663312,-28.23243,21.95962,-1.666364,-2.655704,-0.1661813,-2.193379,531,769,98
2440.891,3.667219,-25.41206,35.40545,2.925714,-3.015764,0.09480853,-1.941977,548,765,120
2440.895,3.671125,-14.55675,43.81868,6.440402,-2.721751,-0.1906823,-0.9001484,533,773,90
2440.898,3.675031,-3.045425,43.78516,-2.657564,-2.09431,-1.601092,0.8032094,527,797,69
2440.902,3.678937,1.297657,38.29286,-12.4307,-2.367018,-2.196575,1.493501,547,782,109
2440.906,3.682844,3.394978,31.45023,-14.51844,-2.98274,-1.971804,1.743838,513,787,130
2440.91,3.68675,2.542642,21.29882,-9.844957,-3.331082,-0.741424,2.027198,548,820,83
2440.914,3.690656,-0.3351882,15.25585,-3.576937,-2.619485,0.4335626,2.293514,518,788,92
2440.918,3.694562,-5.343858,12.04283,0.1101333,-1.441303,1.271926,2.596049,560,785,86
2440.922,3.698469,-15.72512,10.67814,-3.596091,-0.4356932,1.543568,2.925216,533,784,84
2440.926,3.702375,-24.033,7.216124,-5.616797,0.6093313,1.53185,3.387541,523,783,128
2440.93,3.706281,-27.65303,4.007894,-0.8236054,1.425324,1.444499,3.752927,552,760,127
2440.934,3.710187,-26.14468,-0.7709329,5.808333,1.99524,0.8767126,4.191816,548,753,95
2440.938,3.714094,-24.33467,-12.37323,6.473921,2.257295,-0.3419499,4.290885,511,823,89
2440.941,3.718,-21.7202,-20.93969,0.1915361,1.807754,-0.8021441,3.375823,576,779,95
2440.945,3.721906,-15.33726,-25.46952,-4.592079,0.8085357,-0.9448896,1.938781,524,831,93
2440.949,3.725812,-7.929596,-24.12876,-6.579266,-0.4133226,-1.057808,0.4719121,508,796,148
2440.953,3.729719,-5.463568,-17.74103,-4.630386,-0.922519,-0.9576727,0.1480718,528,825,97
2440.957,3.733625,-5.104438,-10.58237,-1.450886,-1.269795,-0.6114618,0.3131877,522,805,88
2440.961,3.737531,-5.702988,-5.171476,0.4357447,-1.391235,-0.1821602,0.6146576,539,761,84
2440.965,3.741437,-7.551312,-0.5506664,1.173159,-0.9235843,0.1523328,0.8937569,509,783,89
2440.969,3.745344,-9.44752,1.877054,0.248997,-0.2322276,0.1320928,0.9970875,526,801,137
2440.973,3.74925,-11.16656,4.022259,-0.7709329,0.4559332,-0.0181095,1.087635,523,778,122
2440.977,3.753156,-12.1386,6.071695,-1.441309,1.047155,-0.2759035,1.310275,540,815,101
2440.98,3.757062,-11.54484,6.593631,-1.551443,1.174987,-0.4612595,1.526524,507,771,106
2440.984,3.760969,-10.29507,6.411672,-1.599327,1.100418,-0.6061355,1.696966,518,762,96
2440.988,3.764875,-8.916007,6.253655,-1.824382,0.9118664,-0.6572682,1.774731,504,806,105
2440.992,3.768781,-7.709329,6.368576,-2.092532,0.5944176,-0.5432849,1.784318,527,801,91
2440.996,3.772687,-7.627926,6.493075,-2.231396,0.3643204,-0.3771036,1.788579,530,803,101
2441,3.776594,-8.082825,6.445191,-2.422932,0.1736381,-0.2332929,1.801362,506,762,124
2441.004,3.7805,-8.882488,5.918467,-2.552219,-0.03089267,-0.1768339,1.809884,496,813,114
2441.008,3.784406,-9.433155,5.15711,-2.782062,-0.1683118,-0.2162487,1.798166,514,778,106
2441.012,3.788312,-9.691728,4.343082,-2.858677,-0.2876214,-0.2620551,1.777926,509,743,82
2441.016,3.792219,-9.586383,3.490746,-2.906561,-0.3781689,-0.2844256,1.764078,535,800,89
2441.02,3.796125,-9.26556,2.178724,-2.724601,-0.4207795,-0.2673814,1.739577,485,767,103
2441.023,3.800031,-9.006987,1.177947,-2.528277,-0.4005394,-0.2396845,1.720402,523,815,110
2441.027,3.803937,-8.911219,0.2202666,-2.331952,-0.3589941,-0.2141182,1.696966,523,768,61
2441.031,3.807844,-8.791508,-0.9289502,-2.126051,-0.3217099,-0.185356,1.659682,515,806,79
2441.035,3.81175,-8.753201,-1.82917,-2.121263,-0.3110572,-0.1725728,1.63092,512,750,95
2441.039,3.815656,-8.523358,-2.446874,-2.116474,-0.3131877,-0.1576591,1.602158,522,764,96
2441.043,3.819562,-8.303091,-2.844312,-2.015918,-0.3334278,-0.1427454,1.584048,516,768,98
2441.047,3.823469,-7.920019,-3.064578,-1.963245,-0.3739078,-0.1278317,1.567004,542,792,98
2441.051,3.827375,-7.723695,-2.930503,-1.982399,-0.4058658,-0.1182444,1.557417,509,788,83
2441.055,3.831281,-7.536947,-2.513912,-1.886631,-0.4207795,-0.1065264,1.548894,514,794,55
2441.059,3.835187,-7.536947,-1.82917,-1.752556,-0.42291,-0.07137272,1.547829,524,802,108
2441.062,3.839094,-7.733271,-1.125275,-1.532289,-0.40267,-0.03089267,1.54996,517,803,91
2441.066,3.843,-8.087613,-0.3734955,-1.201889,-0.3717773,0.008522115,1.54996,496,825,74
2441.07,3.846906,-8.772355,0.3639187,-0.8714894,-0.3366236,0.04474111,1.547829,538,794,85
2441.074,3.850812,-9.279926,1.28808,-0.3591302,-0.2844256,0.06711166,1.551025,530,748,105
2441.078,3.854719,-9.710882,1.728614,0.004788403,-0.2460761,0.06817692,1.559547,484,781,85
2441.082,3.858625,-9.979033,2.092532,0.3112462,-0.201335,0.04687164,1.5702,507,807,113
2441.086,3.862531,-10.09395,2.336741,0.521936,-0.1374191,-0.01171791,1.59044,518,820,95
2441.09,3.866437,-10.04128,2.212242,0.5171476,-0.09480853,-0.05326322,1.605354,507,806,114
2441.094,3.870344,-9.89763,1.862689,0.4070143,-0.05645902,-0.09054748,1.61068,514,778,121
2441.098,3.87425,-9.71567,1.422156,0.1388637,-0.02024002,-0.1267665,1.601092,518,767,111
2441.102,3.878156,-9.409213,0.8092402,-0.09576807,-0.0149137,-0.1384844,1.563808,500,781,64
2441.105,3.882062,-9.294291,0.225055,-0.320823,-0.02130529,-0.1342233,1.533981,480,822,101
2441.109,3.885969,-9.045294,-0.3112462,-0.5027823,-0.03089267,-0.1235707,1.503088,528,807,111
2441.113,3.889875,-8.839393,-0.9002198,-0.794875,-0.05752428,-0.1107875,1.447694,475,763,154
2441.117,3.893781,-8.5473,-1.091756,-1.000776,-0.1139833,-0.08735168,1.423193,488,772,110
2441.121,3.897687,-8.322245,-1.398214,-1.134852,-0.1896171,-0.05113269,1.41041,456,786,60
2441.125,3.901594,-8.044518,-1.810016,-1.16837,-0.3036004,-0.001065264,1.397627,466,792,72
2441.129,3.9055,-7.94875,-2.063802,-1.130063,-0.4079963,0.03621899,1.384844,479,811,113
2441.133,3.909406,-7.924807,-2.217031,-1.120486,-0.5070659,0.06817692,1.36993,508,768,76
2441.137,3.913312,-7.896077,-2.130839,-1.04866,-0.6103965,0.09480853,1.357147,495,802,72
2441.141,3.917219,-8.025364,-1.934515,-0.914585,-0.7595335,0.1171791,1.340103,501,840,131
2441.145,3.921125,-8.145074,-1.786074,-0.9002198,-0.8607337,0.1161138,1.321993,511,789,85
2441.148,3.925031,-8.283938,-1.541866,-1.000776,-0.938498,0.1118528,1.301753,540,816,122
2441.152,3.928937,-8.604761,-1.225831,-1.268927,-1.013066,0.09267801,1.26873,508,802,107
2441.156,3.932844,-8.968679,-1.043872,-1.551443,-1.058873,0.07137272,1.232511,488,813,131
2441.16,3.93675,-9.361328,-0.8140286,-1.805228,-1.095092,0.03621899,1.179248,481,780,77
2441.164,3.940656,-9.509769,-0.4836287,-2.059013,-1.145159,-0.0149137,1.123854,487,791,116
2441.168,3.944562,-9.734824,0.004788403,-2.322376,-1.229315,-0.09374327,1.049285,504,791,107
2441.172,3.948469,-9.739612,0.2585738,-2.442086,-1.310275,-0.1533981,1.00561,482,786,105
2441.176,3.952375,-9.878476,0.4213795,-2.547431,-1.393366,-0.1970739,0.9683254,475,794,113
2441.18,3.956281,-10.04128,0.3830723,-2.557007,-1.493501,-0.2237055,0.9353022,541,789,135
2441.184,3.960187,-10.24718,0.3303998,-2.446874,-1.542503,-0.2173139,0.9257148,466,815,92
2441.188,3.964094,-10.52012,0.1101333,-2.284068,-1.553156,-0.2045308,0.9363674,510,801,99
2441.191,3.968,-10.78348,-0.1244985,-1.982399,-1.50948,-0.1917476,0.9704559,469,839,96
2441.195,3.971906,-11.09952,-0.6799533,-1.747767,-1.34756,-0.1906823,1.049285,484,813,88
2441.199,3.975812,-11.32457,-1.312023,-1.786074,-1.14942,-0.181095,1.125985,473,809,67
2441.203,3.979719,-11.36767,-2.106897,-1.924938,-0.8905611,-0.1533981,1.203749,468,812,103
2441.207,3.983625,-11.15698,-3.160346,-1.982399,-0.5017395,-0.1203749,1.299623,493,817,114
2441.211,3.987531,-10.7356,-3.840299,-2.011129,-0.2290319,-0.1001349,1.377387,484,784,133
2441.215,3.991437,-10.28549,-4.419696,-1.963245,-0.01597897,-0.08522115,1.453021,470,806,92
2441.219,3.995344,-9.639056,-4.951209,-1.867477,0.1257012,-0.0777643,1.518002,430,827,98
2441.223,3.99925,-8.705317,-5.137957,-1.790863,0.1896171,-0.06072007,1.584048,488,817,122
2441.227,4.003156,-8.09719,-4.91769,-1.675941,0.1555286,-0.04261058,1.611745,467,821,112
2441.23,4.007062,-7.627926,-4.390966,-1.623269,0.08948221,-0.02663161,1.621332,467,776,98
2441.234,4.010969,-7.40766,-3.265691,-1.766921,-0.01917476,0.01065264,1.608549,486,772,75
2441.238,4.014875,-7.728483,-2.293645,-1.762132,-0.1139833,0.03621899,1.57233,444,806,93
2441.242,4.018781,-8.418013,-1.297657,-1.82917,-0.2183792,0.04687164,1.521198,512,788,70
2441.246,4.022687,-9.849746,-0.4884171,-1.996764,-0.3217099,0.04261058,1.449825,472,809,110
2441.25,4.026594,-10.99896,0.4932055,-2.327164,-0.4484763,-0.007456851,1.339037,512,791,94
2441.254,4.0305,-11.99974,1.063026,-2.829946,-0.5464807,-0.08948221,1.245294,446,812,84
2441.258,4.034406,-12.60787,1.403002,-3.366248,-0.6274408,-0.205596,1.168595,485,824,99
2441.262,4.038312,-12.97657,1.37906,-4.027047,-0.7105314,-0.3813647,1.096157,439,818,114
2441.266,4.042219,-12.75152,0.9385271,-4.592079,-0.753142,-0.499609,1.054612,468,820,92
2441.27,4.046125,-12.19606,0.1436521,-4.946421,-0.7914915,-0.5848302,1.013066,535,835,96
2441.273,4.050031,-11.13304,-0.8571242,-5.142745,-0.8372978,-0.6359629,0.9480853,470,861,97
2441.277,4.053937,-10.40041,-2.217031,-5.109226,-0.8341021,-0.644485,0.8905611,470,795,94
2441.281,4.057844,-9.710882,-3.193865,-4.912902,-0.8213189,-0.6370281,0.8223841,452,811,96
2441.285,4.06175,-9.279926,-3.888183,-4.577714,-0.8159926,-0.6178534,0.741424,508,811,93
2441.289,4.065656,-8.858546,-4.34787,-4.003105,-0.8266452,-0.5997439,0.6050702,482,809,100
2441.293,4.069562,-8.719682,-4.343082,-3.581726,-0.84582,-0.5901565,0.4964132,466,796,88
2441.297,4.073469,-8.863335,-4.13718,-3.136404,-0.8617989,-0.5699165,0.3994742,488,827,96
2441.301,4.077375,-9.35654,-3.763685,-2.671929,-0.8671253,-0.5241101,0.2929477,492,818,68
2441.305,4.081281,-9.921572,-3.586514,-2.37026,-0.8586031,-0.4814995,0.2237055,483,819,110
2441.309,4.085187,-10.55364,-3.428497,-2.226608,-0.8426242,-0.4346279,0.1608549,463,776,97
2441.312,4.089094,-11.25754,-3.351882,-2.169147,-0.8277105,-0.3877563,0.1097222,491,810,89
2441.316,4.093,-11.9327,-3.251326,-1.929727,-0.7829694,-0.3536678,0.0660464,477,823,114
2441.32,4.096906,-12.36366,-3.117251,-1.92015,-0.7403588,-0.3621899,0.05006743,479,817,130
2441.324,4.100812,-12.44985,-3.145981,-2.020706,-0.7052051,-0.3856257,0.04261058,440,835,63
2441.328,4.104719,-12.3062,-3.160346,-2.015918,-0.6711166,-0.4111921,0.04048005,446,803,98
2441.332,4.108625,-12.15297,-3.303998,-1.968034,-0.6498113,-0.4346279,0.03195793,454,826,104
2441.336,4.112531,-11.91355,-3.423708,-1.824382,-0.6455502,-0.4697816,0.01065264,459,796,93
2441.34,4.116437,-11.67892,-3.56736,-1.963245,-0.664725,-0.5113269,-0.0181095,502,811,77
2441.344,4.120344,-11.25754,-3.89776,-2.173935,-0.7073356,-0.588026,-0.07989483,496,808,99
2441.348,4.12425,-11.25754,-4.271256,-2.60968,-0.7563377,-0.6348976,-0.1395496,472,776,116
2441.352,4.128156,-11.6023,-5.147534,-2.571373,-0.8330368,-0.6498113,-0.2226403,488,814,60
2441.355,4.132062,-12.70363,-6.83784,-2.312799,-1.00561,-0.5976133,-0.4154531,453,796,114
2441.359,4.135969,-13.6661,-7.728483,-2.748544,-1.156877,-0.5241101,-0.6348976,461,795,113
2441.363,4.139875,-14.20719,-7.671022,-3.031059,-1.26873,-0.4740427,-0.8799084,505,791,42
2441.367,4.143781,-14.21198,-6.392518,-2.973598,-1.2911,-0.5251754,-1.081243,468,792,90
2441.371,4.147687,-13.61343,-4.390966,-2.949656,-1.24849,-0.716923,-1.182444,424,826,82
2441.375,4.151594,-13.06755,-4.060566,-2.920926,-1.20801,-0.8735168,-1.186705,464,812,75
2441.379,4.1555,-12.56956,-4.510676,-2.63841,-1.170726,-0.9779128,-1.212271,467,848,113
2441.383,4.159406,-11.65497,-5.635951,-1.900996,-1.123854,-1.024784,-1.342233,461,816,84
2441.387,4.163312,-10.74997,-6.29675,-1.264138,-1.112136,-1.036502,-1.49137,500,823,97
2441.391,4.167219,-9.662998,-6.847417,-0.6224924,-1.179248,-1.057808,-1.634116,457,789,120
2441.395,4.171125,-7.97748,-7.479486,0.4357447,-1.282578,-1.099353,-1.731055,514,767,104
2441.398,4.175031,-6.607997,-8.441955,2.480393,-1.482848,-1.138768,-1.800297,481,817,72
2441.402,4.178937,-5.046977,-8.599972,2.806004,-1.573396,-1.171791,-1.843973,493,799,71
2441.406,4.182844,-3.787627,-7.982268,2.049437,-1.539307,-1.18777,-1.906823,471,802,48
2441.41,4.18675,-2.695871,-7.31668,0.4070143,-1.361408,-1.12918,-2.037851,492,788,88
2441.414,4.190656,-2.456451,-7.307103,-0.4548983,-1.104679,-0.9800433,-2.191249,491,807,75
2441.418,4.194562,-2.72939,-7.000646,-1.383849,-0.7339672,-0.721184,-2.404302,463,817,65
2441.422,4.198469,-4.113238,-6.325481,-2.303222,-0.4111921,-0.386691,-2.666357,465,781,85
2441.426,4.202375,-5.746084,-5.894524,-2.30801,-0.1608549,0.0330232,-3.080745,465,805,71
2441.43,4.206281,-7.843405,-5.171476,-2.078167,-0.0298274,0.241815,-3.382215,509,765,83
2441.434,4.210187,-10.44351,-3.98874,-2.365471,0.02130529,0.3802994,-3.640009,479,782,66
2441.438,4.214094,-14.66209,-1.944092,-2.619257,-0.008522115,0.5613944,-3.860518,464,787,68
2441.441,4.218,-19.12009,-0.5267244,-2.777274,-0.1267665,0.7243798,-3.898868,489,809,94
2441.445,4.221906,-25.04335,0.3016694,-3.213019,-0.1299623,0.9768475,-3.816842,472,788,62
2441.449,4.225812,-36.93295,6.143521,-6.569689,-0.07030745,1.618137,-3.285276,470,783,67
2441.453,4.229719,-42.95198,10.27591,-6.426037,-0.3004046,2.044242,-2.565157,504,788,72
2441.457,4.233625,-41.50109,10.66856,-1.221043,-0.6892261,1.581918,-2.099636,484,808,80
2441.461,4.237531,-36.27694,9.308656,3.098097,-1.056742,0.01597897,-2.189118,473,787,111
2441.465,4.241437,-28.28989,9.136274,1.312023,-1.243164,-2.380866,-2.759035,475,765,106
2441.469,4.245344,-21.82554,9.26556,-2.600103,-1.166465,-3.218164,-2.978479,489,784,91
2441.473,4.24925,-15.27022,7.651869,-4.831499,-0.8713863,-2.936934,-2.8613,494,759,69
2441.477,4.253156,-8.365341,3.552995,-5.262455,-0.1640507,-1.443433,-2.447978,530,751,57
2441.48,4.257062,-5.904101,0.1819593,-4.007894,0.3898868,-0.1715076,-2.208293,474,799,67
2441.484,4.260969,-6.363788,-2.437297,-2.121263,0.7424893,0.7872304,-2.130529,514,778,77
2441.488,4.264875,-8.949526,-3.983952,-0.8283938,0.813862,1.339037,-2.190184,510,763,98
2441.492,4.268781,-14.12579,-4.639963,-0.2681506,0.5347627,1.593636,-2.332929,511,771,94
2441.496,4.272687,-17.97567,-4.165911,-0.2154781,0.1608549,1.587244,-2.404302,511,752,111
2441.5,4.276594,-21.04503,-3.236961,0.1915361,-0.2183792,1.446629,-2.433064,517,765,118
2441.504,4.2805,-22.58211,-1.374272,1.436521,-0.5731123,1.029045,-2.453304,508,804,90
2441.508,4.284406,-21.61485,-0.004788403,2.403778,-0.680704,0.5390238,-2.472479,530,801,96
2441.512,4.288312,-19.29727,1.115698,2.791639,-0.6711166,0.004261058,-2.474609,496,780,73
2441.516,4.292219,-16.20396,1.628057,2.164358,-0.5848302,-0.4122573,-2.440521,519,769,79
2441.52,4.296125,-12.12424,1.623269,0.5793968,-0.3941478,-0.5709817,-2.379801,503,760,104
2441.523,4.300031,-9.615114,1.513135,-0.3687071,-0.2194445,-0.3802994,-2.363822,522,735,85
2441.527,4.303937,-7.967903,1.513135,-0.7900865,-0.03089267,-0.03621899,-2.389388,537,794,60
2441.531,4.307844,-7.273585,1.886631,-0.6272808,0.1938781,0.406931,-2.447978,510,773,71
2441.535,4.31175,-7.733271,2.336741,-0.3926491,0.3462109,0.6391587,-2.469283,521,786,73
2441.539,4.315656,-8.647856,2.930503,-0.1532289,0.4665858,0.7627293,-2.453304,520,801,71
2441.543,4.319562,-9.586383,3.428497,0.02873042,0.5486112,0.7914915,-2.402171,545,809,97
2441.547,4.323469,-10.51533,3.739743,0.2202666,0.6093313,0.7350325,-2.311624,498,794,118
2441.551,4.327375,-10.7787,3.768473,0.2585738,0.6359629,0.6540724,-2.240251,530,761,71
2441.555,4.331281,-10.74518,3.711013,0.3256114,0.6423545,0.5763081,-2.172074,487,784,93
2441.559,4.335187,-10.38126,3.519476,0.4309563,0.6231797,0.4910869,-2.086853,532,769,33
2441.562,4.339094,-9.964667,3.289633,0.4405331,0.588026,0.4623248,-2.030394,512,800,72
2441.566,4.343,-9.648633,2.99754,0.5027823,0.5411543,0.4516721,-1.984588,526,790,100
2441.57,4.346906,-9.222465,2.738967,0.4261679,0.5028048,0.4665858,-1.948369,520,787,106
2441.574,4.350812,-8.930372,2.48997,0.3734955,0.4676511,0.5187838,-1.896171,514,755,99
2441.578,4.354719,-8.753201,2.327164,0.2346318,0.44315,0.5432849,-1.858886,544,763,83
2441.582,4.358625,-8.437167,2.164358,0.09576807,0.4261058,0.5677859,-1.827994,570,786,83
2441.586,4.362531,-8.159439,2.044648,0.1723825,0.4346279,0.5826996,-1.816276,532,752,62
2441.59,4.366437,-7.958326,2.130839,0.1723825,0.46339,0.5837649,-1.818406,538,801,90
2441.594,4.370344,-7.819463,2.351106,0.3064578,0.4921522,0.5805691,-1.825863,512,777,51
2441.598,4.37425,-7.594408,2.303222,0.296881,0.5411543,0.5731123,-1.829059,537,762,99
2441.602,4.378156,-7.474698,2.221819,0.3256114,0.6093313,0.5731123,-1.829059,531,755,81
2441.605,4.382062,-7.354988,2.102109,0.4453215,0.716923,0.5773733,-1.830124,554,749,75
2441.609,4.385969,-7.302315,2.006341,0.5554548,0.8319715,0.588026,-1.825863,535,804,111
2441.613,4.389875,-7.115567,1.786074,0.5315128,0.999218,0.628506,-1.808819,532,771,50
2441.617,4.393781,-7.058106,1.632846,0.5315128,1.140898,0.6753777,-1.785383,526,784,93
2441.621,4.397687,-6.98628,1.426944,0.6081272,1.285774,0.7307714,-1.754491,525,764,102
2441.625,4.401594,-6.890512,1.201889,0.641646,1.465804,0.7893609,-1.712945,558,781,95
2441.629,4.4055,-6.852205,1.120486,0.5746084,1.568069,0.8127968,-1.675661,532,789,76
2441.633,4.409406,-6.880936,1.005565,0.3543418,1.641572,0.8245147,-1.629855,545,738,119
2441.637,4.413312,-6.847417,0.9864111,0.1628057,1.69164,0.8255799,-1.581918,536,794,102
2441.641,4.417219,-6.785168,1.015142,-0.2154781,1.723598,0.8127968,-1.513741,571,779,106
2441.645,4.421125,-6.713341,1.058237,-0.4405331,1.719337,0.7957525,-1.464739,538,737,98
2441.648,4.425031,-6.665457,1.297657,-0.7661445,1.701227,0.7691209,-1.40828,555,751,103
2441.652,4.428937,-6.679823,1.546654,-1.187524,1.638377,0.7478156,-1.330515,526,762,128
2441.656,4.432844,-6.684611,1.838747,-1.503559,1.579787,0.7392935,-1.269795,542,792,66
2441.66,4.43675,-6.751649,2.145205,-1.833958,1.525459,0.7350325,-1.21014,548,773,67
2441.664,4.440656,-6.86657,2.509123,-2.145205,1.478587,0.737163,-1.14942,571,754,75
2441.668,4.444562,-6.98628,3.155558,-2.375048,1.406149,0.7456851,-1.058873,582,780,84
2441.672,4.448469,-7.149086,3.682282,-2.523489,1.351821,0.7446198,-0.9864349,538,789,103
2441.676,4.452375,-7.307103,4.185065,-2.748544,1.296427,0.7424893,-0.9118664,499,763,125
2441.68,4.456281,-7.426814,4.821922,-2.896984,1.216532,0.7478156,-0.8000136,553,751,96
2441.684,4.460187,-7.460332,5.15711,-2.954445,1.157942,0.7382283,-0.721184,514,777,143
2441.688,4.464094,-7.340622,5.707777,-3.102885,1.096157,0.7158577,-0.6562029,519,771,112
2441.691,4.468,-7.115567,6.220136,-3.29921,1.018393,0.6998787,-0.5858954,546,754,116
2441.695,4.471906,-6.603208,6.86657,-3.548207,0.8937569,0.6870956,-0.479369,552,790,96
2441.699,4.475812,-6.248866,7.115567,-3.744531,0.7925567,0.6870956,-0.4016047,578,753,96
2441.703,4.479719,-5.904101,7.489063,-3.964798,0.6956177,0.7115966,-0.3366236,539,796,97
2441.707,4.483625,-5.66947,7.924807,-4.180276,0.5773733,0.7765778,-0.2545982,514,747,77
2441.711,4.487531,-5.540183,8.264784,-4.141969,0.5060006,0.8372978,-0.1938781,554,797,90
2441.715,4.491437,-5.664681,8.619126,-4.132392,0.4410195,0.9054748,-0.1225054,552,744,78
2441.719,4.495344,-6.071695,8.868123,-4.046201,0.3547331,0.9821738,-0.04687164,516,782,100
2441.723,4.49925,-6.483498,9.064447,-3.845088,0.165116,1.090831,0.04687164,533,740,95
2441.727,4.503156,-6.895301,9.141062,-3.557784,-0.06178534,1.168595,0.1107875,540,744,113
2441.73,4.507062,-7.240066,9.165004,-3.011906,-0.3526025,1.237837,0.165116,580,786,98
2441.734,4.510969,-7.426814,8.992621,-1.910573,-0.7872304,1.299623,0.2428803,560,800,128
2441.738,4.514875,-7.493851,8.896853,-0.9385271,-1.070591,1.32945,0.3078614,577,796,85
2441.742,4.518781,-7.575254,8.66701,0.08619126,-1.277252,1.350755,0.3898868,570,755,94
2441.746,4.522687,-7.867347,8.480262,1.49877,-1.401888,1.393366,0.5581986,547,804,104
2441.75,4.526594,-8.255207,7.963115,2.624045,-1.357147,1.423193,0.7403588,549,767,100
2441.754,4.5305,-8.78672,7.058106,3.845088,-1.172856,1.424259,0.974717,517,756,79
2441.758,4.534406,-9.294291,5.760449,5.401319,-0.8436894,1.372061,1.243164,555,739,109
2441.762,4.538312,-9.859322,3.792415,7.522582,-0.2567287,1.16753,1.573396,539,726,110
2441.766,4.542219,-10.13226,2.408567,8.743624,0.2439456,0.9108011,1.785383,539,766,125
2441.77,4.546125,-10.49618,1.154005,9.581595,0.7669904,0.6050702,1.97287,517,767,125
2441.773,4.550031,-11.29106,-0.7374141,10.82179,1.467934,0.1725728,2.201902,584,756,92
2441.777,4.553937,-12.22958,-2.542642,12.98615,2.014415,-0.1757686,2.333994,554,762,125
2441.781,4.557844,-14.17846,-4.232949,17.57344,2.65677,-0.6274408,2.440521,586,754,99
2441.785,4.56175,-15.69639,-5.650316,20.63802,3.420564,-1.265534,2.53959,556,744,97
2441.789,4.565656,-15.98848,-7.469909,18.81843,4.257862,-1.976066,2.648247,537,761,141
2441.793,4.569562,-15.04516,-10.05565,16.52957,4.434696,-2.221076,2.669553,527,778,82
2441.797,4.573469,-13.34049,-12.60787,13.34528,4.248275,-2.229598,2.631203,529,733,114
2441.801,4.577375,-11.28148,-17.20952,7.575254,3.293798,-1.898301,2.400041,526,760,106
2441.805,4.581281,-9.993398,-22.09369,1.838747,2.211489,-1.323058,2.087918,522,770,108
2441.809,4.585187,-8.753201,-27.94512,-4.510676,1.072721,-0.5038701,1.621332,559,811,68
2441.812,4.589094,-7.206547,-33.16927,-12.79461,0.01597897,0.42291,1.057808,569,789,75
2441.816,4.593,-6.574478,-38.42215,-26.45593,-1.123854,1.747034,0.2151834,544,769,87
2441.82,4.596906,-7.493851,-40.06936,-31.45023,-1.674596,2.538525,-0.4399542,499,759,98
2441.824,4.600812,-10.18015,-38.27371,-31.01928,-1.782187,2.819755,-1.090831,533,762,101
2441.828,4.604719,-14.22156,-29.4822,-26.0968,-1.672465,2.702576,-1.960087,558,776,85
2441.832,4.608625,-16.07946,-20.62844,-20.26931,-1.888714,2.563026,-2.518285,559,759,66
2441.836,4.612531,-16.12734,-12.81856,-13.81933,-2.352104,2.427738,-2.897519,498,788,120
2441.84,4.616437,-14.39873,-7.005434,-7.096414,-2.6589,2.23386,-3.00298,533,774,116
2441.844,4.620344,-11.47301,-1.723825,0.1244985,-2.508698,1.73212,-2.715359,510,736,56
2441.848,4.62425,-9.701305,1.144428,2.628833,-2.117746,1.272991,-2.349973,537,800,85
2441.852,4.628156,-7.934384,3.160346,2.96881,-1.637311,0.9129316,-1.946238,568,784,102
2441.855,4.632062,-5.683835,4.165911,1.446098,-0.9480853,0.6775082,-1.335842,532,776,118
2441.859,4.635969,-4.491522,2.815581,-0.1532289,-0.4442153,0.6530071,-0.8394284,508,766,139
2441.863,4.639875,-4.180276,0.2298434,-1.388637,-0.01917476,0.6625945,-0.4037352,574,767,114
2441.867,4.643781,-5.291186,-2.873042,-2.102109,0.2450108,0.6370281,-0.06817692,524,790,103
2441.871,4.647687,-7.699753,-6.014235,-2.715025,0.309992,0.4985438,0.201335,531,798,110
2441.875,4.651594,-11.65497,-6.914454,-4.094085,0.1118528,0.3611246,0.3291667,569,791,105
2441.879,4.6555,-18.10016,-6.354211,-6.263232,-0.2599245,0.3281014,0.4761732,528,798,94
2441.883,4.659406,-31.47896,-3.715801,-9.816227,-0.8394284,0.6572682,0.8159926,532,788,74
2441.887,4.663312,-39.52827,-0.4884171,-9.193734,-1.151551,1.128115,1.255947,511,752,81
2441.891,4.667219,-33.95936,1.666364,1.154005,-1.292166,0.8799084,1.943042,511,783,100
2441.895,4.671125,-21.15995,-0.5841852,13.90552,-1.02585,-0.7467504,2.654639,559,809,150
2441.898,4.675031,-16.01242,-2.528277,14.14494,-0.6327671,-3.266101,2.752643,573,780,112
2441.902,4.678937,-11.51132,-2.035071,8.231265,-0.406931,-3.746535,2.255165,538,776,86
2441.906,4.682844,-6.229713,-1.92015,0.9959879,-0.4623248,-2.764361,1.637311,545,751,62
2441.91,4.68675,-5.066131,-4.994305,-5.808333,-1.003479,-0.7946873,0.8607337,523,767,111
2441.914,4.690656,-7.809886,-8.327033,-7.125144,-1.188835,0.2854909,0.2950782,523,772,142
2441.918,4.694562,-10.41957,-11.04206,-5.894524,-0.4442153,0.9406285,-0.1480718,521,744,76
2441.922,4.698469,-11.04206,-11.58315,-4.180276,1.977131,1.487109,-0.4101268,554,770,115
2441.926,4.702375,-10.26155,-10.54885,1.493982,3.991546,1.67353,-0.4111921,528,752,116
2441.93,4.706281,-9.849746,-10.4866,10.22803,5.310343,1.405084,-0.4005394,548,795,105
2441.934,4.710187,-10.5297,-10.76912,15.96454,5.884521,0.5326322,-0.4708469,529,772,112
2441.938,4.714094,-11.10431,-8.283938,12.97178,5.610748,-0.9640643,-0.8351673,536,791,100
2441.941,4.718,-10.51533,-3.600879,2.37026,4.836301,-1.421063,-1.198422,516,794,93
2441.945,4.721906,-9.533711,0.1723825,-2.145205,3.797668,-0.9608685,-1.44876,541,755,106
2441.949,4.725812,-9.543288,1.096544,0.794875,2.424542,0.07989483,-1.405084,497,772,102
2441.953,4.729719,-11.79863,1.699883,-0.02873042,1.794971,0.2098571,-1.201618,511,768,105
2441.957,4.733625,-15.66287,4.548983,-4.46758,1.287905,-0.1587244,-1.097222,579,768,127
2441.961,4.737531,-18.81364,10.07001,-9.548076,0.4378237,-0.5134575,-1.087635,543,773,126
2441.965,4.741437,-18.43056,18.20072,-11.73159,-0.8309063,-0.5613944,-0.6668555,533,755,67
2441.969,4.745344,-15.59583,23.25727,-9.414001,-1.2911,-0.3589941,-0.01917476,507,778,81
2441.973,4.74925,-11.36767,26.56127,-5.832275,-1.198422,-0.3802994,0.5496764,518,780,102
2441.977,4.753156,-4.663905,26.71929,-1.13964,-1.337972,-0.3898868,1.016262,518,766,105
2441.98,4.757062,-1.426944,25.32108,-1.403002,-1.57233,-0.7041398,1.222924,564,728,118
2441.984,4.760969,-0.6368576,23.55416,-2.513912,-2.042112,-0.8543421,1.44876,547,764,116
2441.988,4.764875,-1.68073,21.83033,-4.232949,-2.483131,-0.6359629,1.689509,496,773,120
2441.992,4.768781,-5.386954,18.40662,-6.042965,-2.668487,0.1960087,1.928129,542,778,92
2441.996,4.772687,-9.375694,15.27979,-5.702988,-2.351039,0.8309063,2.066613,518,759,134
2442,4.776594,-13.60385,12.68927,-4.774038,-1.7726,1.087635,2.21575,562,761,95
2442.004,4.7805,-18.40662,8.791508,-1.393425,-0.9001484,0.8799084,2.498045,527,764,116
2442.008,4.784406,-20.3555,4.951209,2.614468,-0.298274,0.5795039,2.759035,545,754,95
2442.012,4.788312,-20.38423,-0.02873042,4.237737,0.2556635,0.2460761,2.987001,558,756,111
2442.016,4.792219,-19.29248,-5.971139,2.63841,0.7829694,-0.05219796,3.02322,542,772,88
2442.02,4.796125,-17.20952,-13.43626,-1.28808,1.12705,-0.237554,2.575809,527,778,129
2442.023,4.800031,-14.84884,-16.83603,-3.974375,0.8543421,-0.2673814,1.95263,524,755,97
2442.027,4.803937,-12.24874,-17.2191,-5.0374,0.165116,-0.3653857,1.334776,536,793,90
2442.031,4.807844,-9.610325,-13.89116,-3.667917,-0.8916263,-0.4388889,0.8564726,558,780,92
2442.035,4.81175,-8.461109,-10.06044,-1.436521,-1.484979,-0.4261058,0.7765778,542,778,115
2442.039,4.815656,-7.94875,-6.392518,0.1053449,-1.706554,-0.3323625,0.8468852,500,742,105
2442.043,4.819562,-7.800309,-3.313575,0.09097966,-1.496697,-0.2045308,0.9736517,506,780,121
2442.047,4.823469,-8.379706,0.07661445,-0.9959879,-0.7478156,-0.09374327,1.136637,517,735,131
2442.051,4.827375,-9.414001,1.8579,-1.790863,-0.1267665,-0.06711166,1.22825,528,770,95
2442.055,4.831281,-10.49139,2.930503,-1.70946,0.3728426,-0.09800433,1.304949,518,776,115
2442.059,4.835187,-11.19529,3.639187,-0.9481039,0.757403,-0.2269013,1.409345,517,760,84
2442.062,4.839094,-10.93192,3.691859,-0.7230489,0.8383631,-0.3739078,1.467934,520,772,114
2442.066,4.843,-10.26634,3.682282,-0.9911995,0.7723167,-0.4921522,1.497762,533,769,94
2442.07,4.846906,-9.255984,3.86903,-1.8579,0.5219796,-0.5177185,1.497762,557,774,81
2442.074,4.850812,-8.676587,4.165911,-2.379836,0.2790993,-0.4388889,1.492435,513,771,85
2442.078,4.854719,-8.532935,4.462792,-2.753332,0.04261058,-0.3323625,1.497762,565,753,108
2442.082,4.858625,-8.781932,4.692635,-2.906561,-0.1470065,-0.2492719,1.523328,526,757,63
2442.086,4.862531,-9.294291,4.759673,-2.777274,-0.2993393,-0.1992044,1.576591,512,781,105
2442.09,4.866437,-9.543288,4.46758,-2.643199,-0.3568636,-0.2002697,1.63092,525,772,94
2442.094,4.870344,-9.71567,3.840299,-2.499547,-0.390952,-0.2087918,1.686314,524,724,84
2442.098,4.87425,-9.509769,2.686294,-2.331952,-0.42291,-0.2045308,1.738512,488,789,117
2442.102,4.878156,-9.452308,1.604115,-2.346318,-0.4282363,-0.1970739,1.754491,536,748,102
2442.105,4.882062,-9.303868,0.5889736,-2.30801,-0.4079963,-0.1821602,1.750229,480,757,81
2442.109,4.885969,-9.32781,-0.2585738,-2.154781,-0.3675162,-0.1778992,1.733185,499,782,86
2442.113,4.889875,-9.26556,-1.201889,-1.771709,-0.3163835,-0.1842907,1.698032,560,784,114
2442.117,4.893781,-9.121908,-1.843535,-1.604115,-0.2854909,-0.2045308,1.668204,492,743,105
2442.121,4.897687,-8.810662,-2.269703,-1.532289,-0.2641856,-0.2247708,1.640507,517,763,113
2442.125,4.901594,-8.408436,-2.691083,-1.441309,-0.241815,-0.2364887,1.608549,570,775,86
2442.129,4.9055,-7.953538,-2.882619,-1.561019,-0.2279666,-0.2364887,1.581918,534,755,114
2442.133,4.909406,-7.560889,-2.954445,-1.546654,-0.2098571,-0.2205097,1.557417,538,758,98
2442.137,4.913312,-7.19697,-2.796428,-1.493982,-0.1906823,-0.1970739,1.537177,520,764,99
2442.141,4.917219,-7.000646,-2.403778,-1.345541,-0.1736381,-0.1544633,1.50948,500,741,91
2442.145,4.921125,-7.120356,-2.063802,-1.254562,-0.1640507,-0.1139833,1.49137,502,762,114
2442.148,4.925031,-7.354988,-1.623269,-1.235408,-0.149137,-0.07350325,1.475391,517,745,67
2442.152,4.928937,-7.939173,-1.034295,-1.024718,-0.1246359,-0.02556635,1.458347,531,783,64
2442.156,4.932844,-8.422801,-0.4979939,-0.8571242,-0.108657,0.007456851,1.444499,492,781,103
2442.16,4.93675,-8.901642,-0.09097966,-0.6895301,-0.09267801,0.02024002,1.433846,495,756,67
2442.164,4.940656,-9.308656,0.3399766,-0.5123592,-0.0777643,0.01597897,1.429585,507,775,91
2442.168,4.944562,-9.682152,0.7469909,-0.4213795,-0.05645902,-0.01171791,1.422128,471,765,92
2442.172,4.948469,-9.706094,0.9576807,-0.3926491,-0.03728426,-0.04261058,1.422128,506,764,105
2442.176,4.952375,-9.71567,0.9672575,-0.4501099,-0.02130529,-0.07030745,1.427454,535,752,124
2442.18,4.956281,-9.528923,0.9241618,-0.617704,0.006391587,-0.1012001,1.42852,504,812,146
2442.184,4.960187,-9.313444,0.7086837,-0.7374141,0.01917476,-0.1182444,1.422128,511,802,103
2442.188,4.964094,-9.136274,0.4548983,-0.8140286,0.02450108,-0.1299623,1.412541,517,781,118
2442.191,4.968,-8.954314,0.2154781,-0.9959879,0.01597897,-0.1320928,1.401888,514,747,110
2442.195,4.971906,-8.882488,-0.2825158,-1.082179,-0.008522115,-0.1246359,1.383779,495,748,75
2442.199,4.975812,-8.825027,-0.5746084,-1.158794,-0.02024002,-0.1225054,1.365669,528,814,77
2442.203,4.979719,-8.724471,-0.7996634,-1.197101,-0.03834952,-0.1214401,1.348625,525,760,97
2442.207,4.983625,-8.585607,-0.9720459,-1.154005,-0.07030745,-0.1075917,1.32945,492,769,92
2442.211,4.987531,-8.57603,-1.086968,-1.13964,-0.1012001,-0.1054612,1.308145,502,769,123
2442.215,4.991437,-8.475474,-1.201889,-1.120486,-0.1352886,-0.09480853,1.293231,497,759,75
2442.219,4.995344,-8.413225,-1.283292,-1.211466,-0.1938781,-0.06817692,1.284709,464,805,110
2442.223,4.99925,-8.485051,-1.465251,-1.283292,-0.2439456,-0.03515373,1.267665,454,742,127
2442.227,5.003156,-8.494627,-1.642422,-1.192312,-0.3057309,0,1.24849,472,762,152
2442.23,5.007062,-8.585607,-1.747767,-1.125275,-0.3802994,0.02556635,1.222924,472,755,117
2442.234,5.010969,-8.63828,-1.814805,-1.01993,-0.4910869,0.04687164,1.205879,481,777,82
2442.238,5.014875,-8.700529,-1.68073,-0.9959879,-0.5795039,0.0479369,1.204814,464,755,114
2442.242,5.018781,-8.705317,-1.556231,-0.9911995,-0.6615292,0.04580637,1.204814,500,779,110
2442.246,5.022687,-8.724471,-1.340753,-1.000776,-0.7584683,0.03834952,1.205879,480,770,100
2442.25,5.026594,-8.801085,-1.024718,-1.034295,-0.8191884,0.02130529,1.199488,518,825,112
2442.254,5.0305,-8.863335,-0.6607997,-1.120486,-0.8756474,0.004261058,1.181378,492,771,113
2442.258,5.034406,-9.064447,-0.2537854,-1.278504,-0.942759,-0.00958738,1.152616,476,780,144
2442.262,5.038312,-9.399636,0.3782839,-1.307234,-1.04822,-0.02556635,1.098288,490,801,88
2442.266,5.042219,-9.720459,0.7086837,-1.393425,-1.138768,-0.03515373,1.04822,479,777,113
2442.27,5.046125,-10.09874,0.9576807,-1.403002,-1.229315,-0.04367584,0.999218,463,787,127
2442.273,5.050031,-10.62547,1.11091,-1.355118,-1.351821,-0.0777643,0.9374327,499,799,112
2442.277,5.053937,-10.86489,1.197101,-1.335965,-1.43065,-0.1054612,0.9054748,512,797,116
2442.281,5.057844,-11.20008,1.149217,-1.335965,-1.486044,-0.1235707,0.8873653,502,765,112
2442.285,5.06175,-11.33894,1.115698,-1.403002,-1.495631,-0.144876,0.8980179,497,785,73
2442.289,5.065656,-11.53526,0.9193734,-1.594538,-1.440238,-0.1619202,0.9523464,496,813,102
2442.293,5.069562,-11.5209,0.8092402,-1.790863,-1.348625,-0.1619202,1.018393,490,843,80
2442.297,5.073469,-11.51611,0.3495534,-2.135628,-1.215467,-0.1480718,1.095092,460,775,111
2442.301,5.077375,-11.35809,-0.2633622,-2.676717,-0.9779128,-0.128897,1.209075,512,779,98
2442.305,5.081281,-11.16177,-0.8858546,-3.007117,-0.7882957,-0.112918,1.297492,478,786,130
2442.309,5.085187,-11.01333,-1.575385,-3.241749,-0.6135923,-0.1033307,1.382713,476,798,87
2442.312,5.089094,-10.79306,-2.360683,-3.361459,-0.4772385,-0.09480853,1.458347,467,761,112
2442.316,5.093,-10.47224,-3.20823,-3.361459,-0.3653857,-0.09374327,1.533981,429,793,85
2442.32,5.096906,-10.0748,-3.591302,-3.227384,-0.3387541,-0.1043959,1.578722,470,791,111
2442.324,5.100812,-9.586383,-3.706224,-3.136404,-0.3366236,-0.1193096,1.606419,477,795,83
2442.328,5.104719,-8.949526,-3.442862,-2.901772,-0.3557983,-0.1331581,1.63092,446,794,100
2442.332,5.108625,-8.714894,-3.174711,-2.710236,-0.386691,-0.1267665,1.638377,479,774,115
2442.336,5.112531,-8.882488,-2.978387,-2.403778,-0.4154531,-0.112918,1.623463,480,808,60
2442.34,5.116437,-9.323021,-2.710236,-2.059013,-0.4356932,-0.09800433,1.579787,466,790,104
2442.344,5.120344,-10.08438,-2.164358,-1.728614,-0.4857606,-0.1139833,1.480718,439,800,126
2442.348,5.12425,-10.64941,-1.685518,-1.628057,-0.5262406,-0.1640507,1.398692,466,801,90
2442.352,5.128156,-11.08515,-1.312023,-1.594538,-0.572047,-0.2439456,1.323058,475,781,119
2442.355,5.132062,-11.35809,-1.091756,-1.584961,-0.6178534,-0.3728426,1.24849,473,797,93
2442.359,5.135969,-11.35809,-1.292869,-1.666364,-0.628506,-0.4548679,1.201618,458,848,97
2442.363,5.139875,-11.066,-1.762132,-1.8579,-0.6210492,-0.5230448,1.145159,481,765,94
2442.367,5.143781,-10.57758,-2.384625,-2.006341,-0.592287,-0.5571333,1.084439,436,778,99
2442.371,5.147687,-10.0748,-3.165135,-2.063802,-0.5326322,-0.5635249,0.9917612,477,787,81
2442.375,5.151594,-9.600749,-3.610456,-2.240973,-0.4932174,-0.5475459,0.9129316,454,783,90
2442.379,5.1555,-9.217676,-3.983952,-2.384625,-0.4676511,-0.5241101,0.8245147,449,790,111
2442.383,5.159406,-8.935161,-3.873818,-2.681506,-0.4665858,-0.4868258,0.6902914,487,785,46
2442.387,5.163312,-8.882488,-3.524265,-2.911349,-0.4857606,-0.4697816,0.5890912,486,805,95
2442.391,5.167219,-9.155427,-3.08852,-3.270479,-0.5241101,-0.4538026,0.4974785,472,799,80
2442.395,5.171125,-9.821015,-2.528277,-3.754108,-0.5986786,-0.427171,0.3802994,449,805,146
2442.398,5.175031,-10.47703,-2.135628,-4.07972,-0.6700513,-0.4005394,0.2993393,465,761,67
2442.402,5.178937,-11.15698,-1.92015,-4.223372,-0.7424893,-0.3802994,0.2311624,483,801,83
2442.406,5.182844,-11.85609,-1.833958,-4.223372,-0.8127968,-0.3834952,0.1842907,483,799,75
2442.41,5.18675,-12.48337,-1.877054,-4.204218,-0.8863,-0.4207795,0.1533981,476,795,67
2442.414,5.190656,-12.67969,-2.154781,-4.122815,-0.9267801,-0.4601942,0.1470065,487,785,108
2442.418,5.194562,-12.65575,-2.480393,-3.888183,-0.9448896,-0.495348,0.1555286,468,757,107
2442.422,5.198469,-12.22958,-2.949656,-3.907337,-0.9267801,-0.5400891,0.1757686,458,820,96
2442.426,5.202375,-11.83214,-3.385401,-3.974375,-0.8926916,-0.5592638,0.1874865,496,803,61
2442.43,5.206281,-11.3533,-3.892972,-4.094085,-0.8564726,-0.5645902,0.1874865,487,811,123
2442.434,5.210187,-11.08994,-4.644751,-4.261679,-0.829841,-0.5624596,0.1683118,448,789,103
2442.438,5.214094,-11.1474,-6.009446,-3.926491,-0.8213189,-0.5571333,0.1001349,437,785,101
2442.441,5.218,-11.54484,-6.967127,-3.62961,-0.850081,-0.5432849,-0.0149137,477,787,84
2442.445,5.221906,-11.98059,-7.728483,-3.596091,-0.9342369,-0.5038701,-0.1619202,491,790,102
2442.449,5.225812,-12.23437,-7.996634,-3.65834,-1.018393,-0.4676511,-0.3771036,462,766,57
2442.453,5.229719,-12.06199,-7.345411,-3.672705,-1.012001,-0.5028048,-0.5262406,457,790,85
2442.457,5.233625,-11.82257,-6.517017,-3.907337,-0.9502159,-0.5869607,-0.6370281,468,775,118
2442.461,5.237531,-11.68849,-6.042965,-3.859453,-0.8586031,-0.6562029,-0.7243798,465,798,87
2442.465,5.241437,-11.69328,-6.330269,-3.471592,-0.6956177,-0.6934871,-0.8639295,460,811,84
2442.469,5.245344,-11.74595,-7.091625,-2.896984,-0.5763081,-0.6700513,-1.018393,462,806,61
2442.473,5.24925,-11.75553,-8.054094,-2.240973,-0.4900216,-0.6221144,-1.202684,468,829,107
