t_native_s,t_opt_s,ax,ay,az,gx,gy,gz,mx,my,mz
2447.043,0,-3.615245,4.505888,7.680599,0.01171791,-0.02769688,-0.01597897,-155,951,1427
2447.047,0.00390625,-3.591302,4.505888,7.704541,0.01384844,-0.02130529,-0.01597897,-101,890,1396
2447.051,0.0078125,-3.639187,4.525041,7.723695,0.01065264,-0.02130529,-0.01384844,-94,904,1333
2447.055,0.01171875,-3.572149,4.55856,7.685387,0.01171791,-0.02237055,-0.01278317,-141,902,1426
2447.059,0.015625,-3.615245,4.58729,7.680599,0.01065264,-0.02237055,-0.01384844,-125,925,1432
2447.062,0.01953125,-3.615245,4.501099,7.651869,0.01171791,-0.02343582,-0.0149137,-105,937,1409
2447.066,0.0234375,-3.62961,4.496311,7.690176,0.01171791,-0.01917476,-0.01171791,-84,914,1401
2447.07,0.02734375,-3.643975,4.505888,7.704541,0.008522115,-0.02237055,-0.01171791,-102,902,1376
2447.074,0.03125,-3.572149,4.520253,7.699753,0.00958738,-0.02450108,-0.01171791,-85,943,1423
2447.078,0.03515625,-3.624821,4.548983,7.690176,0.00958738,-0.02663161,-0.01384844,-118,948,1375
2447.082,0.0390625,-3.605668,4.592079,7.680599,0.007456851,-0.02343582,-0.01171791,-104,944,1378
2447.086,0.04296875,-3.576937,4.553772,7.709329,0.007456851,-0.02130529,-0.00958738,-96,931,1405
2447.09,0.046875,-3.610456,4.462792,7.704541,0.007456851,-0.02237055,-0.01171791,-96,958,1398
2447.094,0.05078125,-3.639187,4.563348,7.675811,0.006391587,-0.02663161,-0.01171791,-100,902,1407
2447.098,0.0546875,-3.624821,4.568137,7.680599,0.006391587,-0.02343582,-0.01384844,-152,918,1370
2447.102,0.05859375,-3.610456,4.505888,7.699753,0.007456851,-0.02024002,-0.01171791,-118,923,1398
2447.105,0.0625,-3.620033,4.52983,7.714118,0.005326322,-0.02024002,-0.00958738,-133,909,1426
2447.109,0.06640625,-3.634398,4.553772,7.661445,0.005326322,-0.02450108,-0.01171791,-95,922,1394
2447.113,0.0703125,-3.586514,4.544195,7.694964,0.005326322,-0.02556635,-0.00958738,-118,896,1380
2447.117,0.07421875,-3.591302,4.582502,7.661445,0.006391587,-0.02450108,-0.01384844,-106,946,1407
2447.121,0.078125,-3.591302,4.544195,7.666234,0.006391587,-0.02024002,-0.01171791,-134,978,1379
2447.125,0.08203125,-3.634398,4.534618,7.723695,0.006391587,-0.02024002,-0.01065264,-121,938,1365
2447.129,0.0859375,-3.576937,4.52983,7.73806,0.007456851,-0.02450108,-0.01171791,-120,921,1376
2447.133,0.08984375,-3.56736,4.548983,7.747637,0.00958738,-0.02237055,-0.01171791,-111,913,1406
2447.137,0.09375,-3.624821,4.520253,7.709329,0.008522115,-0.02024002,-0.01171791,-143,933,1437
2447.141,0.09765625,-3.620033,4.548983,7.704541,0.008522115,-0.0181095,-0.01065264,-153,886,1402
2447.145,0.1015625,-3.600879,4.539406,7.685387,0.007456851,-0.02024002,-0.008522115,-109,916,1382
2447.148,0.1054688,-3.600879,4.491522,7.694964,0.008522115,-0.02237055,-0.01065264,-125,896,1371
2447.152,0.109375,-3.572149,4.520253,7.680599,0.007456851,-0.02237055,-0.01171791,-144,955,1405
2447.156,0.1132812,-3.576937,4.534618,7.699753,0.007456851,-0.01917476,-0.00958738,-91,943,1369
2447.16,0.1171875,-3.56736,4.510676,7.699753,0.004261058,-0.01917476,-0.008522115,-115,881,1380
2447.164,0.1210938,-3.591302,4.515464,7.656657,0.008522115,-0.02343582,-0.008522115,-141,902,1370
2447.168,0.125,-3.605668,4.505888,7.752425,0.008522115,-0.02024002,-0.006391587,-101,971,1421
2447.172,0.1289062,-3.672705,4.534618,7.627926,0.00958738,-0.0181095,-0.008522115,-110,967,1394
2447.176,0.1328125,-3.586514,4.458003,7.728483,0.008522115,-0.01917476,-0.007456851,-102,934,1427
2447.18,0.1367188,-3.562572,4.534618,7.685387,0.007456851,-0.02450108,-0.008522115,-111,930,1396
2447.184,0.140625,-3.600879,4.568137,7.656657,0.00958738,-0.02450108,-0.007456851,-118,972,1383
2447.188,0.1445312,-3.672705,4.553772,7.632715,0.007456851,-0.0181095,-0.005326322,-109,914,1390
2447.191,0.1484375,-3.586514,4.515464,7.723695,0.005326322,-0.0181095,-0.005326322,-110,899,1432
2447.195,0.1523438,-3.548207,4.515464,7.723695,0.008522115,-0.02130529,-0.006391587,-98,915,1434
2447.199,0.15625,-3.610456,4.510676,7.64708,0.008522115,-0.02237055,-0.006391587,-134,933,1414
2447.203,0.1601562,-3.543418,4.582502,7.752425,0.006391587,-0.02237055,-0.002130529,-93,948,1384
2447.207,0.1640625,-3.605668,4.568137,7.661445,0.006391587,-0.01917476,-0.005326322,-117,965,1434
2447.211,0.1679688,-3.615245,4.55856,7.699753,0.005326322,-0.0149137,-0.006391587,-119,963,1405
2447.215,0.171875,-3.562572,4.520253,7.718906,0.005326322,-0.02130529,-0.01065264,-101,946,1381
2447.219,0.1757812,-3.572149,4.568137,7.685387,0.007456851,-0.02450108,-0.008522115,-122,938,1385
2447.223,0.1796875,-3.610456,4.55856,7.656657,0.007456851,-0.0181095,-0.00958738,-127,908,1442
2447.227,0.1835938,-3.605668,4.448427,7.709329,0.004261058,-0.01704423,-0.006391587,-145,896,1397
2447.23,0.1875,-3.586514,4.477157,7.671022,0.004261058,-0.02237055,-0.01065264,-107,975,1368
2447.234,0.1914062,-3.596091,4.544195,7.704541,0.006391587,-0.02237055,-0.007456851,-132,933,1402
2447.238,0.1953125,-3.615245,4.553772,7.671022,0.008522115,-0.02237055,-0.007456851,-112,901,1404
2447.242,0.1992188,-3.620033,4.477157,7.680599,0.005326322,-0.01917476,-0.006391587,-140,898,1413
2447.246,0.203125,-3.620033,4.491522,7.73806,0.005326322,-0.0181095,-0.005326322,-105,953,1376
2447.25,0.2070312,-3.682282,4.501099,7.709329,0.005326322,-0.01704423,-0.004261058,-108,962,1403
2447.254,0.2109375,-3.653552,4.515464,7.685387,0.007456851,-0.02343582,-0.003195793,-91,943,1437
2447.258,0.2148438,-3.634398,4.55856,7.728483,0.007456851,-0.02237055,-0.001065264,-104,902,1391
2447.262,0.21875,-3.605668,4.52983,7.675811,0.007456851,-0.01597897,0.001065264,-130,943,1378
2447.266,0.2226562,-3.600879,4.515464,7.671022,0.006391587,-0.01597897,0.001065264,-126,895,1390
2447.27,0.2265625,-3.596091,4.52983,7.718906,0.006391587,-0.02024002,0.002130529,-83,913,1441
2447.273,0.2304688,-3.562572,4.515464,7.666234,0.00958738,-0.0181095,0.004261058,-103,961,1357
2447.277,0.234375,-3.543418,4.510676,7.718906,0.007456851,-0.0181095,0.002130529,-114,941,1386
2447.281,0.2382812,-3.557784,4.496311,7.709329,0.006391587,-0.01597897,0.006391587,-90,920,1395
2447.285,0.2421875,-3.620033,4.491522,7.704541,0.007456851,-0.01704423,0.006391587,-143,920,1418
2447.289,0.2460938,-3.576937,4.462792,7.714118,0.00958738,-0.01704423,0.008522115,-104,936,1425
2447.293,0.25,-3.56736,4.481946,7.685387,0.008522115,-0.01917476,0.008522115,-110,941,1421
2447.297,0.2539062,-3.600879,4.448427,7.656657,0.006391587,-0.01384844,0.01278317,-98,918,1405
2447.301,0.2578125,-3.610456,4.505888,7.723695,0.008522115,-0.01278317,0.01278317,-113,930,1430
2447.305,0.2617188,-3.620033,4.477157,7.690176,0.006391587,-0.0181095,0.0181095,-83,934,1418
2447.309,0.265625,-3.62961,4.553772,7.680599,0.00958738,-0.01917476,0.01384844,-119,900,1414
2447.312,0.2695312,-3.600879,4.601656,7.680599,0.007456851,-0.01278317,0.01704423,-131,900,1410
2447.316,0.2734375,-3.610456,4.563348,7.694964,0.002130529,-0.01384844,0.01917476,-75,953,1397
2447.32,0.2773438,-3.624821,4.501099,7.709329,0.002130529,-0.01384844,0.02130529,-110,918,1441
2447.324,0.28125,-3.572149,4.520253,7.747637,0.003195793,-0.0181095,0.02024002,-153,929,1398
2447.328,0.2851562,-3.643975,4.568137,7.699753,0,-0.01704423,0.02556635,-68,911,1359
2447.332,0.2890625,-3.620033,4.630386,7.671022,-0.003195793,-0.0149137,0.02663161,-72,928,1399
2447.336,0.2929688,-3.586514,4.577714,7.723695,-0.007456851,-0.01384844,0.03089267,-100,941,1394
2447.34,0.296875,-3.682282,4.501099,7.704541,-0.007456851,-0.0149137,0.03195793,-103,919,1375
2447.344,0.3007812,-3.596091,4.491522,7.699753,-0.006391587,-0.0149137,0.03621899,-100,883,1377
2447.348,0.3046875,-3.610456,4.510676,7.757213,-0.007456851,-0.0149137,0.03728426,-116,932,1444
2447.352,0.3085938,-3.605668,4.505888,7.685387,-0.01171791,-0.01065264,0.04261058,-93,956,1447
2447.355,0.3125,-3.624821,4.572925,7.661445,-0.01171791,-0.01278317,0.04474111,-163,944,1406
2447.359,0.3164062,-3.576937,4.520253,7.694964,-0.008522115,-0.01384844,0.04687164,-126,910,1416
2447.363,0.3203125,-3.615245,4.539406,7.733271,-0.006391587,-0.0149137,0.0479369,-74,940,1420
2447.367,0.3242188,-3.562572,4.534618,7.642292,-0.007456851,-0.008522115,0.05006743,-128,939,1408
2447.371,0.328125,-3.581726,4.592079,7.752425,-0.007456851,-0.008522115,0.05113269,-132,961,1389
2447.375,0.3320312,-3.543418,4.577714,7.709329,-0.004261058,-0.008522115,0.05326322,-80,907,1390
2447.379,0.3359375,-3.53863,4.563348,7.747637,-0.001065264,-0.007456851,0.04900216,-156,915,1410
2447.383,0.3398438,-3.552995,4.654328,7.747637,0,-0.004261058,0.04900216,-95,920,1424
2447.387,0.34375,-3.543418,4.592079,7.714118,0.003195793,-0.001065264,0.0479369,-128,944,1383
2447.391,0.3476562,-3.56736,4.616021,7.671022,0.005326322,-0.003195793,0.04154531,-115,909,1407
2447.395,0.3515625,-3.543418,4.592079,7.690176,0.008522115,-0.006391587,0.04048005,-91,899,1391
2447.398,0.3554688,-3.529053,4.654328,7.651869,0.008522115,-0.007456851,0.03728426,-166,947,1411
2447.402,0.359375,-3.543418,4.64954,7.642292,0.004261058,-0.004261058,0.03515373,-160,940,1389
2447.406,0.3632812,-3.505111,4.639963,7.675811,0.003195793,-0.003195793,0.02876214,-116,890,1383
2447.41,0.3671875,-3.552995,4.55856,7.671022,0.005326322,-0.008522115,0.02769688,-110,928,1431
2447.414,0.3710938,-3.562572,4.553772,7.723695,0.007456851,-0.01278317,0.02450108,-134,923,1427
2447.418,0.375,-3.548207,4.525041,7.709329,0.008522115,-0.01065264,0.02237055,-123,957,1382
2447.422,0.3789062,-3.586514,4.568137,7.785944,0.003195793,-0.01065264,0.02130529,-87,932,1396
2447.426,0.3828125,-3.552995,4.544195,7.728483,0.003195793,-0.01597897,0.02024002,-104,910,1439
2447.43,0.3867188,-3.524265,4.520253,7.747637,0.003195793,-0.02450108,0.01704423,-113,930,1377
2447.434,0.390625,-3.533842,4.424485,7.781155,0.003195793,-0.0330232,0.01171791,-143,958,1402
2447.438,0.3945312,-3.442862,4.43885,7.867347,0.001065264,-0.03515373,0.004261058,-111,905,1418
2447.441,0.3984375,-3.457227,4.410119,7.800309,0,-0.04154531,-0.006391587,-106,945,1418
2447.445,0.4023438,-3.409343,4.510676,7.714118,0.001065264,-0.04900216,-0.0149137,-111,937,1416
2447.449,0.40625,-3.41892,4.563348,7.680599,0.004261058,-0.04048005,-0.02024002,-144,946,1355
2447.453,0.4101562,-3.5099,4.520253,7.723695,0.00958738,-0.03195793,-0.02237055,-63,898,1382
2447.457,0.4140625,-3.677494,4.486734,7.690176,0.01278317,-0.02556635,-0.02876214,-79,880,1442
2447.461,0.4179688,-3.734955,4.548983,7.699753,0.01704423,-0.02450108,-0.0181095,-136,960,1384
2447.465,0.421875,-3.691859,4.611232,7.656657,0.02130529,-0.03515373,-0.008522115,-59,924,1393
2447.469,0.4257812,-3.562572,4.630386,7.651869,0.02450108,-0.03408846,-0.006391587,-105,942,1373
2447.473,0.4296875,-3.500323,4.683058,7.671022,0.02343582,-0.02556635,-0.007456851,-123,885,1400
2447.477,0.4335938,-3.485958,4.668693,7.632715,0.02130529,-0.01917476,-0.00958738,-103,930,1399
2447.48,0.4375,-3.572149,4.644751,7.651869,0.02130529,-0.02237055,-0.01171791,-129,948,1385
2447.484,0.4414062,-3.620033,4.730942,7.694964,0.01704423,-0.02769688,-0.01065264,-108,906,1372
2447.488,0.4453125,-3.581726,4.759673,7.608773,0.01278317,-0.02876214,-0.008522115,-83,910,1375
2447.492,0.4492188,-3.586514,4.79798,7.584831,0.01278317,-0.02663161,-0.00958738,-146,940,1431
2447.496,0.453125,-3.548207,4.740519,7.637503,0.003195793,-0.02343582,-0.00958738,-130,944,1402
2447.5,0.4570312,-3.581726,4.730942,7.661445,0.002130529,-0.03195793,-0.00958738,-97,907,1385
2447.504,0.4609375,-3.605668,4.774038,7.694964,0,-0.04048005,-0.01597897,-105,946,1410
2447.508,0.4648438,-3.548207,4.735731,7.694964,-0.004261058,-0.03941478,-0.01704423,-110,938,1404
2447.512,0.46875,-3.572149,4.697424,7.73806,-0.007456851,-0.04261058,-0.01917476,-92,921,1406
2447.516,0.4726562,-3.533842,4.683058,7.76679,-0.005326322,-0.04687164,-0.02556635,-54,901,1403
2447.52,0.4765625,-3.600879,4.663905,7.790732,-0.005326322,-0.04900216,-0.03089267,-100,925,1381
2447.523,0.4804688,-3.562572,4.692635,7.742848,-0.01065264,-0.05645902,-0.03834952,-123,937,1429
2447.527,0.484375,-3.605668,4.778827,7.762002,-0.006391587,-0.07030745,-0.04048005,-134,961,1347
2447.531,0.4882812,-3.624821,4.702212,7.723695,-0.006391587,-0.07669904,-0.04154531,-120,873,1408
2447.535,0.4921875,-3.596091,4.663905,7.61835,-0.007456851,-0.08628642,-0.04367584,-107,929,1424
2447.539,0.4960938,-3.581726,4.639963,7.694964,-0.007456851,-0.08948221,-0.04367584,-124,911,1405
2447.543,0.5,-3.572149,4.668693,7.685387,-0.01065264,-0.08948221,-0.04580637,-126,907,1405
2447.547,0.5039062,-3.529053,4.659116,7.690176,-0.01597897,-0.08202536,-0.04048005,-97,918,1395
2447.551,0.5078125,-3.639187,4.683058,7.757213,-0.02237055,-0.08735168,-0.03941478,-94,911,1433
2447.555,0.5117188,-3.62961,4.740519,7.608773,-0.02663161,-0.09267801,-0.04048005,-140,943,1427
2447.559,0.515625,-3.562572,4.759673,7.642292,-0.02556635,-0.08841695,-0.04048005,-103,934,1346
2447.562,0.5195312,-3.552995,4.721366,7.64708,-0.03621899,-0.07989483,-0.03515373,-106,904,1389
2447.566,0.5234375,-3.490746,4.67827,7.651869,-0.03941478,-0.07989483,-0.03941478,-98,892,1380
2447.57,0.5273438,-3.500323,4.673482,7.76679,-0.04261058,-0.0777643,-0.04261058,-153,966,1409
2447.574,0.53125,-3.562572,4.721366,7.762002,-0.0479369,-0.07456851,-0.04474111,-140,937,1384
2447.578,0.5351562,-3.687071,4.783615,7.843405,-0.04900216,-0.0660464,-0.04261058,-112,909,1404
2447.582,0.5390625,-3.734955,4.764461,7.85777,-0.04154531,-0.06924219,-0.0479369,-129,916,1381
2447.586,0.5429688,-3.701436,4.726154,7.747637,-0.04474111,-0.07456851,-0.04580637,-156,931,1383
2447.59,0.546875,-3.711013,4.721366,7.747637,-0.03834952,-0.07350325,-0.04154531,-135,938,1385
2447.594,0.5507812,-3.620033,4.812345,7.728483,-0.03941478,-0.07563377,-0.03408846,-78,885,1385
2447.598,0.5546875,-3.5099,4.826711,7.584831,-0.04474111,-0.0628506,-0.03089267,-108,900,1402
2447.602,0.5585938,-3.385401,4.793192,7.580042,-0.05219796,-0.05219796,-0.03515373,-107,964,1387
2447.605,0.5625,-3.394978,4.836287,7.694964,-0.06498113,-0.04154531,-0.0330232,-107,932,1390
2447.609,0.5664062,-3.428497,4.922479,7.580042,-0.0777643,-0.02769688,-0.04154531,-126,872,1441
2447.613,0.5703125,-3.452439,4.960786,7.584831,-0.08735168,-0.004261058,-0.04474111,-75,892,1375
2447.617,0.5742188,-3.485958,5.090073,7.64708,-0.1033307,0.002130529,-0.04900216,-115,1000,1409
2447.621,0.578125,-3.495534,5.195418,7.551312,-0.128897,0.003195793,-0.05432849,-148,929,1401
2447.625,0.5820312,-3.505111,5.497087,7.570466,-0.1587244,0.01065264,-0.07456851,-127,916,1378
2447.629,0.5859375,-3.404555,5.884948,7.431602,-0.2045308,0.0149137,-0.09054748,-116,923,1409
2447.633,0.5898438,-3.236961,6.081272,7.398083,-0.2386192,0.02876214,-0.09374327,-111,949,1405
2447.637,0.59375,-3.107674,6.248866,7.589619,-0.2908172,0.04474111,-0.1075917,-96,946,1389
2447.641,0.5976562,-3.189077,5.722142,7.680599,-0.3611246,0.07563377,-0.1683118,-82,927,1408
2447.645,0.6015625,-3.165135,5.12838,7.967903,-0.3547331,0.1065264,-0.2098571,-98,923,1378
2447.648,0.6054688,-3.093309,4.309563,8.33661,-0.334493,0.1320928,-0.2279666,-103,936,1430
2447.652,0.609375,-2.935291,4.180276,8.461109,-0.3238404,0.1374191,-0.2311624,-127,911,1389
2447.656,0.6132812,-2.964022,5.559336,8.394071,-0.4186489,0.1235707,-0.2705772,-133,895,1398
2447.66,0.6171875,-3.016694,7.153875,8.078036,-0.5251754,0.1374191,-0.3281014,-86,895,1440
2447.664,0.6210938,-3.045425,8.432378,7.920019,-0.6583334,0.181095,-0.4016047,-95,927,1365
2447.668,0.625,-3.236961,9.030929,7.958326,-0.757403,0.2460761,-0.4878911,-119,926,1391
2447.672,0.6289062,-4.094085,10.42914,8.116344,-0.9342369,0.2822951,-0.5795039,-107,941,1401
2447.676,0.6328125,-4.31914,11.3533,7.747637,-1.295362,0.2812298,-0.7435546,-115,914,1384
2447.68,0.6367188,-3.581726,12.24395,7.762002,-1.45089,0.3334278,-0.8309063,-105,954,1402
2447.684,0.640625,-3.083732,12.42112,7.958326,-1.663943,0.4122573,-0.90654,-133,929,1404
2447.688,0.6445312,-2.633622,11.32457,7.651869,-1.837581,0.4942827,-1.063134,-83,928,1406
2447.691,0.6484375,-2.94008,11.73159,9.409213,-2.095375,0.6125271,-1.201618,-82,917,1416
2447.695,0.6523438,-3.715801,15.82088,9.730036,-2.514024,0.6370281,-1.247425,-78,933,1429
2447.699,0.65625,-6.880936,6.320692,7.244854,-2.779275,0.7446198,-1.472195,-99,938,1387
2447.703,0.6601562,-9.940725,0.8140286,6.397307,-1.724663,0.7957525,-2.086853,-89,917,1389
2447.707,0.6640625,-8.705317,1.154005,9.385271,-1.144094,0.4569984,-2.291384,-85,959,1398
2447.711,0.6679688,-6.220136,1.431733,7.795521,-1.237837,0.2024002,-1.936651,-137,958,1435
2447.715,0.671875,-3.969586,1.580173,5.861006,-0.9459548,0.1960087,-1.870604,-133,885,1404
2447.719,0.6757812,-1.570596,5.746084,7.038953,-0.4569984,0.2620551,-2.087918,-67,947,1394
2447.723,0.6796875,0.4118027,11.11388,7.848193,-0.3036004,0.3025351,-2.088984,-73,904,1410
2447.727,0.6835938,0.5171476,12.36845,6.80911,-0.2141182,0.3877563,-1.840777,-80,924,1389
2447.73,0.6875,0.06703765,13.51287,6.258443,-0.00958738,0.5422196,-1.645834,-82,939,1375
2447.734,0.6914062,-0.4357447,15.93581,6.641515,0.1619202,0.6977482,-1.495631,-63,858,1379
2447.738,0.6953125,-0.05267244,19.27811,7.331045,0.0777643,0.8213189,-1.136637,-84,891,1418
2447.742,0.6992188,0.1388637,19.82399,6.29675,0.03408846,0.9150622,-0.7584683,-110,918,1395
2447.746,0.703125,0.2585738,19.44571,5.702988,0.1672465,1.069525,-0.4079963,-60,920,1390
2447.75,0.7070312,0.5889736,18.18157,6.502652,0.1597897,1.194161,-0.1533981,-77,932,1390
2447.754,0.7109375,1.867477,15.89271,6.0286,0.07030745,1.318797,0.1107875,-96,908,1420
2447.758,0.7148438,3.241749,14.75307,5.511452,0.1278317,1.38804,0.366451,-84,935,1442
2447.762,0.71875,4.793192,13.74751,4.936844,0.1235707,1.48924,0.608266,-74,931,1399
2447.766,0.7226562,5.942409,12.28225,3.864241,0.1523328,1.65329,0.7861652,-78,919,1398
2447.77,0.7265625,6.780379,11.44428,4.247314,0.2790993,1.921737,0.9235843,-110,895,1411
2447.773,0.7304688,7.015011,11.16656,5.24809,0.4314321,2.102832,1.043959,-127,951,1440
2447.777,0.734375,6.277597,10.58237,5.415684,0.5965481,2.214685,1.217597,-95,943,1405
2447.781,0.7382812,5.382165,9.974244,6.665457,0.7126619,2.259426,1.397627,-70,876,1377
2447.785,0.7421875,5.315128,9.481039,7.082049,0.8415589,2.291384,1.547829,-88,939,1437
2447.789,0.7460938,5.559336,9.610325,7.493851,0.9832391,2.289253,1.646899,-96,934,1435
2447.793,0.75,5.81791,9.691728,8.106767,1.051416,2.253034,1.761947,-96,911,1409
2447.797,0.7539062,5.750872,9.409213,8.379706,1.063134,2.210424,1.849299,-121,868,1405
2447.801,0.7578125,5.444415,9.203311,8.863335,1.06633,2.13692,1.899366,-80,883,1409
2447.805,0.7617188,5.267244,8.848969,9.150639,1.053547,2.048504,1.924933,-100,912,1428
2447.809,0.765625,5.272032,8.082825,9.351752,1.042894,1.945173,1.956891,-82,911,1360
2447.812,0.7695312,5.410896,7.149086,9.485827,1.04822,1.826929,1.967543,-54,909,1391
2447.816,0.7734375,5.865794,6.153098,9.744401,1.063134,1.712945,1.955826,-98,860,1435
2447.82,0.7773438,6.162675,5.032612,9.883264,1.075917,1.546764,1.921737,-96,932,1453
2447.824,0.78125,6.311116,4.295198,10.07001,1.085504,1.434911,1.895105,-130,889,1393
2447.828,0.7851562,6.086061,3.620033,10.38605,1.100418,1.323058,1.857821,-89,848,1380
2447.832,0.7890625,5.84664,3.112462,10.74039,1.128115,1.202684,1.803493,-88,865,1421
2447.836,0.7929688,5.372589,2.528277,11.31021,1.168595,1.031176,1.722533,-114,912,1433
2447.84,0.796875,4.960786,2.193089,11.78905,1.202684,0.8926916,1.65116,-111,927,1412
2447.844,0.8007812,4.515464,2.149993,12.31577,1.232511,0.7488809,1.582983,-122,901,1367
2447.848,0.8046875,3.993528,2.293645,12.89517,1.252751,0.588026,1.508414,-95,895,1420
2447.852,0.8085938,3.213019,3.193865,13.69005,1.232511,0.334493,1.406149,-109,907,1437
2447.855,0.8125,2.691083,4.060566,14.04918,1.184574,0.1214401,1.319863,-117,901,1439
2447.859,0.8164062,2.312799,4.745308,14.29338,1.12705,-0.0958738,1.235707,-76,903,1403
2447.863,0.8203125,1.934515,5.166687,14.48013,1.071656,-0.3004046,1.151551,-128,881,1461
2447.867,0.8242188,1.455675,5.109226,14.5759,0.9779128,-0.5773733,1.039698,-114,931,1416
2447.871,0.828125,1.115698,4.946421,14.46098,0.9076053,-0.7872304,0.9491506,-90,906,1387
2447.875,0.8320312,0.9385271,4.826711,14.35563,0.84582,-0.9928265,0.8649947,-109,899,1395
2447.879,0.8359375,0.8714894,4.855441,14.10664,0.7914915,-1.182444,0.7819041,-107,882,1464
2447.883,0.8398438,0.9337386,4.898537,13.73314,0.7318367,-1.409345,0.6732471,-94,910,1406
2447.887,0.84375,0.8619126,4.989516,13.33091,0.6956177,-1.557417,0.5912218,-115,870,1420
2447.891,0.8476562,0.8858546,5.080496,12.89038,0.6625945,-1.687379,0.5134575,-102,875,1402
2447.895,0.8515625,0.9241618,5.233725,12.469,0.6327671,-1.801362,0.44315,-115,884,1453
2447.898,0.8554688,1.058237,5.501875,11.9758,0.5763081,-1.910019,0.3557983,-108,929,1439
2447.902,0.859375,1.01993,5.81791,11.62145,0.5219796,-1.97287,0.2929477,-104,916,1392
2447.906,0.8632812,0.866701,6.14831,11.28148,0.4569984,-2.026133,0.2247708,-137,896,1420
2447.91,0.8671875,0.7469909,6.382942,10.89841,0.390952,-2.061287,0.165116,-107,868,1426
2447.914,0.8710938,0.7134721,6.603208,10.46266,0.3089267,-2.081527,0.1012001,-126,895,1444
2447.918,0.875,0.6991069,6.531382,10.16099,0.2599245,-2.079396,0.06072007,-109,909,1390
2447.922,0.8789062,0.7326257,6.531382,9.974244,0.2247708,-2.063417,0.02876214,-109,888,1432
2447.926,0.8828125,0.6799533,6.349423,9.753978,0.2151834,-2.038916,0.00958738,-73,899,1398
2447.93,0.8867188,0.5889736,6.282385,9.643844,0.2194445,-1.981392,0.004261058,-96,927,1450
2447.934,0.890625,0.3112462,6.287174,9.605537,0.241815,-1.931324,0.02024002,-103,899,1379
2447.938,0.8945312,0.05267244,6.402095,9.773131,0.273773,-1.879126,0.04900216,-84,880,1402
2447.941,0.8984375,-0.2202666,6.473921,9.907206,0.3259709,-1.822667,0.09906959,-69,893,1377
2447.945,0.9023438,-0.7996634,6.80911,10.20409,0.4122573,-1.747034,0.1906823,-115,900,1409
2447.949,0.90625,-1.28808,7.264008,10.55364,0.4932174,-1.706554,0.2918825,-150,921,1391
2447.953,0.9101562,-1.723825,7.599196,10.76433,0.5773733,-1.676726,0.427171,-89,919,1393
2447.957,0.9140625,-2.240973,7.862558,10.96066,0.6668555,-1.658617,0.5805691,-122,906,1400
2447.961,0.9179688,-2.643199,8.078036,11.07079,0.7467504,-1.644768,0.7329019,-110,908,1449
2447.965,0.921875,-2.753332,8.42759,11.08037,0.8191884,-1.631985,0.9289106,-85,921,1365
2447.969,0.9257812,-2.806004,8.676587,10.99896,0.8245147,-1.609615,1.064199,-90,886,1374
2447.973,0.9296875,-3.021482,8.935161,10.95587,0.8021441,-1.575526,1.194161,-103,896,1441
2447.977,0.9335938,-3.337517,9.002198,10.86968,0.7840346,-1.540372,1.325189,-114,928,1421
2447.98,0.9375,-3.945644,8.796297,10.85531,0.7584683,-1.48924,1.503088,-113,928,1390
2447.984,0.9414062,-4.218583,8.504204,10.70687,0.7275756,-1.463673,1.623463,-80,912,1385
2447.988,0.9453125,-4.419696,8.106767,10.49618,0.6764429,-1.445564,1.717206,-80,951,1424
2447.992,0.9492188,-4.390966,7.733271,10.0748,0.624245,-1.418932,1.79284,-108,927,1398
2447.996,0.953125,-4.290409,7.206547,9.696517,0.5592638,-1.358212,1.878061,-154,931,1383
2448,0.9570312,-4.386177,6.665457,9.452308,0.519849,-1.307079,1.918541,-131,931,1365
2448.004,0.9609375,-4.491522,6.263232,9.275137,0.4804343,-1.253816,1.940912,-63,956,1376
2448.008,0.9648438,-4.668693,5.889736,9.193734,0.4399542,-1.199488,1.95263,-113,929,1395
2448.012,0.96875,-4.874595,5.664681,8.99741,0.3749731,-1.132376,1.956891,-115,949,1353
2448.016,0.9726562,-5.013458,5.497087,8.791508,0.3323625,-1.081243,1.959021,-107,882,1355
2448.02,0.9765625,-5.161899,5.319916,8.690952,0.2993393,-1.034372,1.948369,-105,901,1429
2448.023,0.9804688,-5.262455,5.104438,8.657433,0.2631203,-0.9875001,1.93239,-143,984,1417
2448.027,0.984375,-5.33907,4.821922,8.499416,0.205596,-0.922519,1.897236,-117,903,1375
2448.031,0.9882812,-5.516241,4.692635,8.398859,0.1640507,-0.8745821,1.862082,-97,902,1390
2448.035,0.9921875,-5.655104,4.659116,8.350975,0.1075917,-0.8362326,1.820537,-85,904,1382
2448.039,0.9960938,-5.774814,4.663905,8.312668,0.0479369,-0.8021441,1.777926,-154,956,1417
2448.043,1,-5.93762,4.620809,8.293515,-0.03089267,-0.757403,1.722533,-147,964,1374
2448.047,1.003906,-6.114791,4.515464,8.274361,-0.0809601,-0.7222493,1.687379,-140,950,1349
2448.051,1.007812,-6.430826,4.328717,8.116344,-0.1246359,-0.700944,1.65116,-147,916,1395
2448.055,1.011719,-6.675034,4.31914,8.197746,-0.1768339,-0.6924219,1.613876,-143,922,1378
2448.059,1.015625,-6.890512,4.323928,8.06846,-0.2631203,-0.6945524,1.574461,-155,964,1365
2448.062,1.019531,-7.101202,4.252102,7.833828,-0.3323625,-0.6977482,1.546764,-128,924,1387
2448.066,1.023438,-7.120356,3.98874,7.49864,-0.3760383,-0.7020093,1.514806,-106,909,1397
2448.07,1.027344,-7.043741,3.682282,7.163451,-0.3941478,-0.7084008,1.48924,-114,925,1396
2448.074,1.03125,-7.043741,3.045425,6.842628,-0.4303668,-0.6913566,1.461543,-128,921,1379
2448.078,1.035156,-7.034164,2.614468,6.593631,-0.4559332,-0.6764429,1.427454,-114,922,1369
2448.082,1.039062,-7.125144,2.331952,6.335058,-0.4729774,-0.6508766,1.391235,-118,944,1407
2448.086,1.042969,-7.359776,2.169147,6.066907,-0.4889564,-0.6306365,1.356082,-138,955,1411
2448.09,1.046875,-7.685387,2.06859,5.626374,-0.5209143,-0.5965481,1.324124,-137,956,1337
2448.094,1.050781,-8.087613,1.905785,5.281609,-0.5496764,-0.5550028,1.274056,-127,918,1339
2448.098,1.054688,-8.394071,1.747767,4.927267,-0.5763081,-0.5166533,1.23038,-126,921,1397
2448.102,1.058594,-8.724471,1.479617,4.525041,-0.6050702,-0.4719121,1.179248,-121,983,1407
2448.105,1.0625,-9.093178,1.278504,4.189853,-0.6423545,-0.4165184,1.117462,-129,952,1357
2448.109,1.066406,-9.854534,0.9576807,3.725378,-0.6966829,-0.3494067,1.023719,-116,945,1337
2448.113,1.070312,-10.57758,0.7278373,3.332729,-0.7318367,-0.3004046,0.9534117,-111,942,1373
2448.117,1.074219,-11.26232,0.5363012,3.007117,-0.7563377,-0.257794,0.8884305,-118,990,1415
2448.121,1.078125,-11.84651,0.3543418,2.595315,-0.7755125,-0.2183792,0.8159926,-155,933,1367
2448.125,1.082031,-12.47379,0.08140286,2.035071,-0.7893609,-0.1608549,0.7147924,-108,929,1337
2448.129,1.085938,-12.76588,-0.2011129,1.565808,-0.793622,-0.1033307,0.6359629,-129,959,1378
2448.133,1.089844,-13.12501,-0.4788403,1.211466,-0.7850999,-0.04580637,0.5581986,-150,985,1370
2448.137,1.09375,-13.51287,-0.6799533,0.8331822,-0.7701862,0.02343582,0.4889564,-109,972,1376
2448.141,1.097656,-14.21198,-1.04866,0.4022259,-0.7275756,0.1054612,0.3941478,-145,950,1354
2448.145,1.101562,-14.7004,-1.16837,0.1244985,-0.6817692,0.169377,0.3270362,-139,954,1400
2448.148,1.105469,-15.31331,-1.321599,-0.1244985,-0.6231797,0.2226403,0.2545982,-140,971,1385
2448.152,1.109375,-15.92623,-1.374272,-0.3974375,-0.5592638,0.2801645,0.1800297,-104,971,1326
2448.156,1.113281,-16.86954,-1.340753,-0.6847417,-0.4452805,0.3462109,0.0628506,-141,925,1381
2448.16,1.117188,-17.67879,-1.340753,-0.9002198,-0.3547331,0.386691,-0.03941478,-94,955,1377
2448.164,1.121094,-18.52154,-1.326388,-1.173159,-0.2716424,0.4207795,-0.1544633,-138,965,1405
2448.168,1.125,-19.31163,-1.154005,-1.369483,-0.181095,0.4399542,-0.2801645,-152,943,1347
2448.172,1.128906,-20.3986,-0.8571242,-1.594538,-0.06817692,0.4378237,-0.4644553,-122,956,1338
2448.176,1.132812,-21.11207,-0.5315128,-1.70946,0.01384844,0.427171,-0.6103965,-119,922,1405
2448.18,1.136719,-21.75372,-0.06224924,-1.810016,0.09161274,0.4016047,-0.7605988,-141,948,1352
2448.184,1.140625,-22.27565,0.4309563,-1.972822,0.1512675,0.3579289,-0.9193232,-157,967,1353
2448.188,1.144531,-21.65795,-1.106121,-5.48751,0.3174488,0.2705772,-1.151551,-108,977,1387
2448.191,1.148438,-14.64294,12.75631,-2.652775,0.5166533,0.2109224,-1.015197,-110,945,1391
2448.195,1.152344,-13.73314,14.32211,-7.091625,-1.205879,1.056742,-0.9353022,-149,998,1364
2448.199,1.15625,-13.59428,4.807557,-3.557784,-1.741707,1.988849,-1.271926,-92,982,1376
2448.203,1.160156,-5.401319,2.700659,8.092402,-0.4079963,1.243164,-1.138768,-130,946,1355
2448.207,1.164062,7.723695,-1.972822,7.76679,-0.6689861,1.155812,-0.9374327,-128,945,1363
2448.211,1.167969,26.0968,-1.244985,12.80898,-0.3408846,2.360626,-0.7446198,-152,954,1409
2448.215,1.171875,39.08295,-0.4309563,17.37712,-0.7584683,3.80619,-1.100418,-155,1004,1387
2448.219,1.175781,34.43341,2.274492,15.95017,-1.024784,4.943892,-2.873018,-109,933,1380
2448.223,1.179688,6.799533,9.35654,14.60942,-1.205879,5.488242,-4.057592,-108,940,1424
2448.227,1.183594,-33.84922,9.342175,15.69639,-1.510545,5.951632,-4.203533,-114,960,1409
2448.23,1.1875,-64.14066,10.15142,27.58599,-0.7808388,5.205947,-3.127616,-109,939,1332
2448.234,1.191406,-57.73378,8.820239,24.88533,-0.2620551,2.701511,-1.704423,-96,904,1320
2448.238,1.195312,-31.79979,9.428366,12.8425,-0.1704423,0.3004046,-1.326254,-106,902,1399
2448.242,1.199219,-9.495404,13.62301,7.680599,-0.4783037,0.3685815,-1.453021,-87,981,1386
2448.246,1.203125,3.093309,12.68927,9.251195,-0.9544769,0.7712515,-1.217597,-105,951,1361
2448.25,1.207031,5.583278,6.86657,11.20008,-0.9289106,0.958738,-0.9960222,-132,887,1368
2448.254,1.210938,0.4357447,3.064578,12.22001,-0.7850999,0.9906959,-1.330515,-106,908,1355
2448.258,1.214844,-1.297657,3.303998,10.56801,-0.7989483,0.9843043,-1.620267,-93,936,1368
2448.262,1.21875,0.3351882,2.193089,7.201759,-0.350472,1.008805,-1.524393,-107,941,1364
2448.266,1.222656,2.652775,-2.240973,4.692635,0.3036004,1.178182,-1.26873,-99,931,1373
2448.27,1.226562,5.272032,-8.954314,3.931279,0.6530071,1.725728,-1.206945,-81,899,1421
2448.273,1.230469,5.228936,-14.05396,4.462792,0.5411543,2.183792,-1.345429,-115,939,1403
2448.277,1.234375,-4.869806,-10.58237,31.297,0.165116,2.273274,-1.527589,-125,934,1378
2448.281,1.238281,-28.28031,1.70946,43.91924,-3.188336,0.7701862,-2.535329,-96,941,1361
2448.285,1.242188,-41.44363,29.17574,-1.101333,-1.064199,-0.7286409,-2.358495,-70,915,1381
2448.289,1.246094,-31.55079,42.01345,8.001422,2.49911,-0.4293016,-0.0958738,-99,919,1401
2448.293,1.25,-15.26064,19.73301,10.18015,0.5454154,-0.8309063,1.445564,-119,975,1391
2448.297,1.253906,3.217807,-8.183381,-1.374272,0.4410195,-0.8916263,0.4889564,-106,929,1322
2448.301,1.257812,18.9094,-0.4692635,5.152322,1.002414,-0.4974785,-1.029045,-102,926,1406
2448.305,1.261719,17.24783,8.441955,1.61848,-0.7659251,-0.05752428,-0.427171,-103,958,1387
2448.309,1.265625,3.045425,8.039729,4.07972,-1.200553,0.8085357,-0.1107875,-107,981,1380
2448.312,1.269531,-13.77145,8.255207,12.25352,-0.5145227,1.032241,-0.8021441,-112,934,1384
2448.316,1.273438,-20.57098,3.77805,12.33014,-0.1118528,0.1502023,-1.113201,-107,962,1350
2448.32,1.277344,-12.95263,0.8810662,9.873688,0.2684466,-0.2024002,-0.298274,-102,936,1383
2448.324,1.28125,-3.562572,0.3878607,9.92636,0.3611246,-0.2322276,0.4655206,-101,960,1358
2448.328,1.285156,1.747767,0.8954314,7.800309,0.2652508,-0.1352886,0.4378237,-89,935,1358
2448.332,1.289062,2.212242,5.679046,5.72693,0.1427454,0.09161274,-0.1555286,-88,909,1358
2448.336,1.292969,-1.570596,8.202535,6.019023,0.0330232,0.2407498,-0.2364887,-92,902,1377
2448.34,1.296875,-5.894524,7.718906,6.962338,0.008522115,0.3217099,-0.08628642,-103,918,1361
2448.344,1.300781,-7.450756,6.780379,7.963115,0.05965481,0.2428803,-0.04580637,-110,909,1347
2448.348,1.304688,-5.190629,6.421249,7.412448,0.1065264,0.06072007,-0.08309063,-83,911,1387
2448.352,1.308594,-3.332729,5.434838,6.98628,0.09800433,0.05326322,-0.03621899,-126,915,1353
2448.355,1.3125,-2.868254,4.290409,7.216124,0.05006743,0.09054748,-0.006391587,-68,953,1359
2448.359,1.316406,-3.289633,4.812345,7.067683,-0.01171791,0.08202536,-0.02556635,-97,918,1373
2448.363,1.320312,-3.615245,6.368576,6.92882,-0.05326322,0.0809601,-0.02769688,-84,896,1414
2448.367,1.324219,-3.744531,6.449979,6.880936,-0.05752428,0.09906959,-0.02769688,-113,923,1380
2448.371,1.328125,-3.734955,5.832275,7.101202,-0.0628506,0.09054748,-0.05752428,-94,941,1378
2448.375,1.332031,-3.605668,5.33907,7.225701,-0.07350325,0.0628506,-0.08522115,-81,873,1339
2448.379,1.335938,-3.701436,4.960786,7.28795,-0.08841695,0.06178534,-0.0809601,-85,904,1381
2448.383,1.339844,-3.840299,4.783615,7.474698,-0.09480853,0.08202536,-0.05006743,-103,955,1408
2448.387,1.34375,-3.811569,4.893748,7.599196,-0.0958738,0.07882957,-0.03728426,-105,948,1358
2448.391,1.347656,-3.701436,4.927267,7.508216,-0.08948221,0.06178534,-0.03834952,-93,917,1382
2448.395,1.351562,-3.524265,5.032612,7.417237,-0.0809601,0.05006743,-0.0479369,-115,947,1402
2448.398,1.355469,-3.615245,4.975151,7.307103,-0.08735168,0.05113269,-0.05326322,-113,963,1392
2448.402,1.359375,-3.821146,4.965574,7.311892,-0.09480853,0.05752428,-0.05219796,-100,920,1365
2448.406,1.363281,-3.926491,5.032612,7.340622,-0.09800433,0.05858954,-0.04154531,-54,964,1382
2448.41,1.367188,-3.835511,4.955997,7.431602,-0.1043959,0.05113269,-0.03089267,-102,938,1397
2448.414,1.371094,-3.500323,4.860229,7.594408,-0.09800433,0.04261058,-0.03408846,-84,955,1371
2448.418,1.375,-3.39019,4.865018,7.450756,-0.09480853,0.04048005,-0.04687164,-98,923,1377
2448.422,1.378906,-3.323152,4.836287,7.37893,-0.1033307,0.04261058,-0.06072007,-91,913,1347
2448.426,1.382812,-3.404555,4.884171,7.278373,-0.1118528,0.05113269,-0.07456851,-99,894,1385
2448.43,1.386719,-3.615245,4.927267,7.326257,-0.1182444,0.06178534,-0.08309063,-96,922,1373
2448.434,1.390625,-3.682282,4.975151,7.383718,-0.1203749,0.07669904,-0.0777643,-107,973,1369
2448.438,1.394531,-3.74932,4.836287,7.460332,-0.1214401,0.09267801,-0.07350325,-108,881,1363
2448.441,1.398438,-3.811569,4.774038,7.513005,-0.1161138,0.09800433,-0.07563377,-99,904,1392
2448.445,1.402344,-3.792415,4.841076,7.666234,-0.1161138,0.09480853,-0.0660464,-126,926,1389
2448.449,1.40625,-3.806781,4.754884,7.5561,-0.1097222,0.1022654,-0.05858954,-100,932,1412
2448.453,1.410156,-3.787627,4.774038,7.704541,-0.1001349,0.1033307,-0.05219796,-86,927,1350
2448.457,1.414062,-3.86903,4.807557,7.493851,-0.09374327,0.09906959,-0.05326322,-97,913,1359
2448.461,1.417969,-3.835511,4.865018,7.575254,-0.08309063,0.08948221,-0.05113269,-83,918,1377
2448.465,1.421875,-3.782839,4.788403,7.469909,-0.0777643,0.07669904,-0.04580637,-130,914,1361
2448.469,1.425781,-3.730166,4.774038,7.479486,-0.07563377,0.07030745,-0.04687164,-130,924,1367
2448.473,1.429688,-3.711013,4.836287,7.599196,-0.07882957,0.06178534,-0.04687164,-94,918,1393
2448.477,1.433594,-3.734955,4.654328,7.603984,-0.07030745,0.0479369,-0.05219796,-90,966,1354
2448.48,1.4375,-3.758897,4.429273,7.656657,-0.06072007,0.03834952,-0.05858954,-145,933,1343
2448.484,1.441406,-3.883395,4.333505,7.742848,-0.05432849,0.01917476,-0.05539375,-60,901,1363
2448.488,1.445312,-3.888183,4.261679,7.85777,-0.04900216,0.003195793,-0.04261058,-105,932,1365
2448.492,1.449219,-3.730166,4.299986,7.747637,-0.02876214,-0.006391587,-0.03089267,-115,957,1376
2448.496,1.453125,-3.667917,4.242525,7.781155,-0.01171791,-0.0149137,-0.03834952,-69,951,1356
2448.5,1.457031,-3.648763,4.194641,7.800309,0.006391587,-0.02663161,-0.04048005,-98,902,1357
2448.504,1.460938,-3.672705,4.271256,7.714118,0.0149137,-0.03195793,-0.03834952,-77,921,1407
2448.508,1.464844,-3.682282,4.462792,7.5561,0.01917476,-0.02450108,-0.03621899,-127,950,1393
2448.512,1.46875,-3.754108,4.539406,7.642292,0.02663161,-0.007456851,-0.03728426,-116,944,1375
2448.516,1.472656,-3.825934,4.515464,7.757213,0.03834952,-0.003195793,-0.03728426,-69,956,1374
2448.52,1.476562,-3.825934,4.357447,7.656657,0.05219796,-0.007456851,-0.03515373,-80,894,1390
2448.523,1.480469,-3.701436,4.577714,7.632715,0.05432849,-0.004261058,-0.03408846,-127,894,1371
2448.527,1.484375,-3.653552,4.711789,7.637503,0.05113269,-0.0149137,-0.03728426,-119,959,1363
2448.531,1.488281,-3.691859,4.831499,7.445967,0.0628506,-0.01065264,-0.04580637,-78,916,1373
2448.535,1.492188,-3.730166,4.955997,7.398083,0.05752428,0.005326322,-0.05113269,-59,922,1406
2448.539,1.496094,-3.706224,4.941632,7.474698,0.05539375,0.01278317,-0.05858954,-113,916,1410
2448.543,1.5,-3.821146,4.855441,7.402872,0.05539375,0.01384844,-0.07243798,-122,900,1392
2448.547,1.503906,-3.916914,4.788403,7.388506,0.05219796,0.01704423,-0.07563377,-104,943,1363
2448.551,1.507812,-3.926491,4.927267,7.37893,0.04367584,0.00958738,-0.07882957,-112,920,1390
2448.555,1.511719,-3.835511,4.955997,7.484274,0.03834952,-0.003195793,-0.07989483,-153,919,1378
2448.559,1.515625,-3.768473,4.845864,7.417237,0.03834952,0.001065264,-0.08309063,-103,931,1349
2448.562,1.519531,-3.720589,4.730942,7.474698,0.03834952,0.007456851,-0.09267801,-135,921,1366
2448.566,1.523438,-3.77805,4.754884,7.417237,0.0330232,0.007456851,-0.09800433,-87,927,1394
2448.57,1.527344,-3.787627,4.812345,7.474698,0.03195793,0.003195793,-0.09906959,-108,941,1392
2448.574,1.53125,-3.859453,4.759673,7.431602,0.0330232,0.002130529,-0.1075917,-119,990,1375
2448.578,1.535156,-3.864241,4.707,7.431602,0.03089267,0.01171791,-0.108657,-99,906,1376
2448.582,1.539062,-3.873818,4.592079,7.455544,0.02876214,0.0149137,-0.1033307,-109,943,1364
2448.586,1.542969,-3.921702,4.582502,7.479486,0.02663161,0.0181095,-0.09906959,-84,924,1379
2448.59,1.546875,-3.892972,4.501099,7.532158,0.02663161,0.0181095,-0.09374327,-131,944,1384
2448.594,1.550781,-3.806781,4.390966,7.5561,0.03728426,0.02769688,-0.09267801,-110,921,1339
2448.598,1.554688,-3.797204,4.46758,7.575254,0.04367584,0.03515373,-0.08841695,-102,911,1380
2448.602,1.558594,-3.74932,4.496311,7.599196,0.05006743,0.05006743,-0.08415589,-107,915,1356
2448.605,1.5625,-3.696647,4.577714,7.61835,0.0660464,0.06072007,-0.08841695,-95,955,1371
2448.609,1.566406,-3.610456,4.716577,7.623138,0.07243798,0.06711166,-0.09054748,-122,904,1358
2448.613,1.570312,-3.701436,4.620809,7.690176,0.08309063,0.0777643,-0.08841695,-84,946,1385
2448.617,1.574219,-3.782839,4.52983,7.637503,0.09800433,0.0809601,-0.09480853,-163,970,1368
2448.621,1.578125,-3.730166,4.635174,7.608773,0.1065264,0.0958738,-0.09800433,-136,943,1371
2448.625,1.582031,-3.711013,4.774038,7.656657,0.1214401,0.09054748,-0.09161274,-99,927,1361
2448.629,1.585938,-3.74932,4.697424,7.513005,0.1246359,0.08948221,-0.09693906,-134,908,1369
2448.633,1.589844,-3.773262,4.79798,7.445967,0.1278317,0.1054612,-0.1065264,-104,945,1400
2448.637,1.59375,-3.773262,4.802769,7.603984,0.1331581,0.09906959,-0.1097222,-117,887,1372
2448.641,1.597656,-3.773262,4.663905,7.469909,0.1438107,0.1033307,-0.1150486,-118,928,1347
2448.645,1.601562,-3.782839,4.663905,7.508216,0.1544633,0.1225054,-0.1257012,-89,948,1416
2448.648,1.605469,-3.86903,4.414908,7.489063,0.169377,0.128897,-0.1352886,-68,954,1419
2448.652,1.609375,-4.103662,4.520253,7.225701,0.201335,0.1320928,-0.1576591,-118,898,1340
2448.656,1.613281,-4.132392,7.19697,7.283161,0.1342233,0.165116,-0.1352886,-89,937,1354
2448.66,1.617188,-4.367024,3.600879,7.144298,0.1565939,0.2141182,-0.1395496,-92,933,1369
2448.664,1.621094,-4.031836,3.404555,8.820239,0.3771036,0.1544633,-0.2631203,-115,933,1345
2448.668,1.625,-3.562572,3.500323,7.64708,0.2759035,0.08202536,-0.2865561,-113,925,1385
2448.672,1.628906,-3.351882,4.596867,6.852205,0.3568636,0.2439456,-0.2332929,-104,923,1361
2448.676,1.632812,-3.878607,5.118803,8.00621,0.3323625,0.2524677,-0.2258361,-88,920,1390
2448.68,1.636719,-4.299986,4.826711,7.632715,0.3792341,0.1992044,-0.2716424,-122,946,1371
2448.684,1.640625,-4.170699,4.879383,7.536947,0.4154531,0.2460761,-0.2929477,-100,922,1349
2448.688,1.644531,-3.442862,4.788403,8.044518,0.4442153,0.2801645,-0.2609898,-94,936,1366
2448.691,1.648438,-2.839523,5.377377,7.833828,0.4048005,0.2748382,-0.2386192,-108,904,1372
2448.695,1.652344,-2.858677,4.778827,7.522582,0.3813647,0.3430151,-0.2343582,-83,913,1390
2448.699,1.65625,-3.380613,3.926491,7.489063,0.4665858,0.42291,-0.2769688,-118,911,1354
2448.703,1.660156,-4.007894,4.496311,7.852981,0.4857606,0.4559332,-0.3067962,-103,921,1388
2448.707,1.664062,-3.983952,5.09965,7.699753,0.5049353,0.4676511,-0.278034,-128,896,1385
2448.711,1.667969,-3.687071,5.161899,7.790732,0.5645902,0.4974785,-0.2801645,-126,933,1370
2448.715,1.671875,-3.342306,5.181052,7.733271,0.5869607,0.5390238,-0.3206446,-121,926,1365
2448.719,1.675781,-3.045425,5.027823,7.757213,0.6157228,0.6221144,-0.3611246,-71,895,1395
2448.723,1.679688,-3.141193,4.716577,7.771579,0.6625945,0.6860303,-0.3749731,-77,916,1388
2448.727,1.683594,-3.347094,4.754884,7.843405,0.6945524,0.7307714,-0.3920173,-133,936,1360
2448.73,1.6875,-3.457227,4.88896,7.685387,0.7201188,0.7755125,-0.40267,-135,947,1346
2448.734,1.691406,-3.581726,4.970363,7.709329,0.7872304,0.8447547,-0.4186489,-89,928,1370
2448.738,1.695312,-3.552995,5.334281,7.85777,0.8127968,0.8894958,-0.4293016,-83,918,1422
2448.742,1.699219,-3.399766,5.722142,7.809886,0.8021441,0.9395632,-0.4314321,-134,950,1414
2448.746,1.703125,-3.213019,5.822698,7.747637,0.7925567,1.006675,-0.4335626,-107,924,1376
2448.75,1.707031,-3.026271,6.129156,7.972692,0.7318367,1.12918,-0.46339,-121,929,1352
2448.754,1.710938,-2.96881,6.291962,7.465121,0.6040049,1.238903,-0.4942827,-133,909,1361
2448.758,1.714844,-3.20823,6.373365,7.718906,0.5954828,1.342233,-0.519849,-116,917,1402
2448.762,1.71875,-3.514688,5.884948,7.694964,0.5464807,1.434911,-0.5400891,-116,923,1369
2448.766,1.722656,-3.634398,6.186617,7.40766,0.5613944,1.530785,-0.5933523,-119,901,1406
2448.77,1.726562,-4.52983,5.870582,7.096414,0.4825648,1.614941,-0.5326322,-84,886,1415
2448.773,1.730469,-4.189853,5.813122,7.867347,0.278034,1.743838,-0.5017395,-100,952,1384
2448.777,1.734375,-4.027047,4.175488,7.872135,0.737163,1.715076,-0.7616641,-97,911,1400
2448.781,1.738281,-3.098097,5.702988,7.656657,0.5816344,1.785383,-0.8980179,-97,910,1329
2448.785,1.742188,-3.548207,5.415684,6.818686,0.3632552,2.011219,-0.7978831,-104,904,1373
2448.789,1.746094,-5.042189,5.200206,8.116344,0.5464807,2.108158,-0.7914915,-111,916,1399
2448.793,1.75,-5.612009,5.626374,7.891289,0.4623248,2.093245,-0.9310411,-135,932,1351
2448.797,1.753906,-4.826711,6.421249,7.575254,0.4197142,2.168878,-1.071656,-107,881,1366
2448.801,1.757812,-4.879383,6.531382,8.039729,0.4687164,2.292449,-1.14729,-90,887,1379
2448.805,1.761719,-4.702212,5.880159,7.465121,0.4090615,2.359561,-1.220793,-119,931,1420
2448.809,1.765625,-4.668693,5.626374,7.244854,0.4804343,2.449043,-1.324124,-93,919,1384
2448.812,1.769531,-4.630386,5.913678,7.326257,0.515588,2.548113,-1.418932,-117,898,1388
2448.816,1.773438,-4.635174,6.378153,7.153875,0.515588,2.672748,-1.494566,-97,853,1428
2448.82,1.777344,-4.644751,6.742072,6.023811,0.4846953,2.794189,-1.525459,-108,949,1383
2448.824,1.78125,-5.3678,8.049306,8.394071,0.4516721,2.924151,-1.54996,-99,887,1414
2448.828,1.785156,-5.181052,7.795521,7.37893,0.2205097,3.078614,-1.63305,-86,870,1359
2448.832,1.789062,-4.668693,4.232949,7.120356,0.6423545,3.220294,-1.849299,-69,868,1384
2448.836,1.792969,-4.314351,4.472369,7.805097,0.6977482,3.251187,-1.986718,-109,909,1415
2448.84,1.796875,-3.754108,5.90889,6.751649,0.6551376,3.412042,-2.031459,-71,884,1392
2448.844,1.800781,-4.065354,6.220136,7.086837,0.7691209,3.66451,-2.07407,-95,851,1378
2448.848,1.804688,-4.151546,6.110003,8.42759,0.8522115,3.977697,-2.260491,-70,862,1406
2448.852,1.808594,-3.562572,5.84664,8.465897,0.882039,4.20886,-2.392584,-100,888,1419
2448.855,1.8125,-3.303998,4.716577,8.312668,1.022654,4.486894,-2.452239,-102,912,1411
2448.859,1.816406,-2.700659,5.329493,9.016563,1.186705,4.791559,-2.467152,-76,859,1395
2448.863,1.820312,-2.331952,6.26802,8.403648,1.206945,5.242166,-2.544917,-74,905,1421
2448.867,1.824219,-2.676717,6.679823,7.431602,1.287905,5.588377,-2.701511,-99,862,1380
2448.871,1.828125,-3.29921,6.607997,6.675034,1.427454,5.897304,-2.897519,-98,907,1425
2448.875,1.832031,-4.280833,6.014235,6.497863,1.647964,6.142315,-3.103115,-72,862,1401
2448.879,1.835938,-5.233725,5.640739,7.024588,2.010154,6.436328,-3.412042,-69,848,1445
2448.883,1.839844,-5.267244,6.224924,8.18817,2.29671,6.639793,-3.611246,-57,888,1444
2448.887,1.84375,-5.209783,7.254431,8.2169,2.563026,6.870956,-3.756122,-83,852,1385
2448.891,1.847656,-5.386954,8.748413,9.32781,2.755839,7.137272,-3.926565,-70,858,1416
2448.895,1.851562,-4.520253,11.47301,13.20642,3.108442,7.692274,-4.200338,-88,886,1434
2448.898,1.855469,-3.505111,12.03805,10.84095,2.929477,8.160991,-4.313256,-72,871,1461
2448.902,1.859375,-4.103662,13.64216,10.02692,3.165966,8.361261,-4.458132,-77,912,1431
2448.906,1.863281,-6.789956,15.78258,8.480262,2.867692,8.681905,-4.788364,-74,818,1425
2448.91,1.867188,-17.35317,21.81597,6.74686,2.011219,8.951417,-5.452023,-66,873,1423
2448.914,1.871094,-26.43677,22.65394,5.612009,1.307079,8.834238,-5.808887,-110,914,1432
2448.918,1.875,-36.06147,23.33868,5.650316,1.232511,8.33889,-5.681055,-57,889,1435
2448.922,1.878906,-41.71657,19.80005,6.363788,1.058873,7.572965,-5.342301,-82,877,1441
2448.926,1.882812,-42.33906,12.69406,8.398859,1.153681,6.252037,-5.049353,-45,855,1465
2448.93,1.886719,-39.14041,8.394071,9.409213,1.385909,5.328453,-5.094095,-66,903,1479
2448.934,1.890625,-35.07505,12.98615,10.21845,1.389105,4.612595,-5.426457,-75,848,1428
2448.938,1.894531,-30.35848,24.35382,8.30788,1.227185,4.038417,-5.662946,-75,889,1456
2448.941,1.898438,-24.92364,30.99055,7.8865,1.040763,3.58355,-5.488242,-37,867,1502
2448.945,1.902344,-22.52944,29.10392,10.07959,0.6317018,3.130812,-5.026983,-34,891,1461
2448.949,1.90625,-19.12488,23.77442,8.614338,0.3259709,2.961435,-4.792625,13,915,1474
2448.953,1.910156,-15.18403,21.96919,6.675034,0.2183792,3.02109,-4.585963,-33,900,1429
2448.957,1.914062,-11.90397,20.11608,8.087613,0.2119876,3.184075,-4.167314,-51,907,1487
2448.961,1.917969,-9.32781,16.15607,7.915231,0.1949434,3.52496,-3.279949,-40,878,1462
2448.965,1.921875,-9.562441,12.21522,8.863335,0.721184,3.695402,-2.663161,-65,921,1444
2448.969,1.925781,-12.25352,12.61265,11.86088,1.455151,3.547331,-2.173139,-44,891,1467
2448.973,1.929688,-14.41309,16.34282,13.98214,1.638377,3.145726,-1.809884,9,864,1473
2448.977,1.933594,-16.22311,17.19994,22.99391,1.758752,2.345712,-1.530785,-51,920,1467
2448.98,1.9375,-13.23036,16.06509,28.57719,2.279666,1.292166,-1.171791,-47,903,1450
2448.984,1.941406,-12.33014,18.86152,25.70415,3.190467,0.02663161,-0.644485,-35,852,1430
2448.988,1.945312,-10.85052,31.95302,17.33402,2.018676,-0.7243798,-0.90654,-45,925,1431
2448.992,1.949219,1.034295,40.20343,12.9239,-0.05752428,-1.308145,-1.206945,-35,906,1436
2448.996,1.953125,4.91769,38.61368,11.58794,-0.592287,-1.201618,-0.1331581,-23,863,1481
2449,1.957031,1.776498,29.51093,11.3533,-0.8277105,-0.8074704,1.070591,-25,935,1439
2449.004,1.960938,-3.423708,18.59337,15.27501,-0.9267801,-0.9289106,1.391235,-14,890,1473
2449.008,1.964844,-6.564901,14.76265,20.729,-1.313471,-1.916411,1.026915,-44,925,1469
2449.012,1.96875,-4.022259,15.81131,19.29727,-1.793905,-2.783536,0.9406285,-30,919,1456
2449.016,1.972656,0.593762,15.68681,14.02523,-2.038916,-3.312972,1.123854,-7,911,1435
2449.02,1.976562,5.813122,13.9965,9.35654,-1.976066,-3.463175,1.401888,-39,902,1458
2449.023,1.980469,11.26711,9.26556,5.070919,-1.725728,-3.234143,1.739577,-5,920,1477
2449.027,1.984375,12.44027,4.874595,3.849876,-1.496697,-2.936934,1.848234,-58,937,1443
2449.031,1.988281,11.48259,1.49877,4.659116,-1.312406,-2.667422,1.758752,-54,902,1437
2449.035,1.992188,9.907206,-0.1053449,5.851429,-1.161138,-2.543851,1.555286,-37,893,1445
2449.039,1.996094,7.958326,0.4644751,6.579266,-0.8916263,-2.516155,1.385909,-38,902,1456
2449.043,2,6.952762,1.790863,6.861782,-0.7094661,-2.523611,1.357147,-47,950,1457
2449.047,2.003906,6.090849,3.131616,6.83784,-0.5890912,-2.558765,1.325189,-13,887,1406
2449.051,2.007812,5.228936,4.472369,7.024588,-0.5070659,-2.630138,1.275122,-63,875,1485
2449.055,2.011719,4.007894,6.325481,7.412448,-0.4367584,-2.77821,1.218663,-42,932,1451
2449.059,2.015625,3.08852,7.541735,7.85777,-0.4356932,-2.895389,1.238903,-43,955,1430
2449.062,2.019531,2.164358,8.207323,8.379706,-0.4772385,-3.049852,1.285774,-58,932,1405
2449.066,2.023438,1.312023,8.628703,8.887277,-0.5262406,-3.242665,1.333711,-42,889,1457
2449.07,2.027344,0.6895301,8.834604,8.963891,-0.5826996,-3.456783,1.377387,-36,930,1444
2449.074,2.03125,0.4501099,8.772355,8.848969,-0.6732471,-3.731621,1.484979,-34,904,1422
2449.078,2.035156,0.2346318,8.398859,8.69574,-0.7052051,-3.944674,1.588309,-30,877,1431
2449.082,2.039062,-0.009576807,7.97748,8.441955,-0.7233146,-4.141748,1.69164,-39,905,1465
2449.086,2.042969,-0.2059013,7.560889,8.149862,-0.7243798,-4.327104,1.780057,-50,936,1470
2449.09,2.046875,-0.320823,7.321469,7.757213,-0.700944,-4.555071,1.89191,-53,925,1430
2449.094,2.050781,-0.272939,7.04853,7.388506,-0.644485,-4.695686,1.986718,-58,931,1405
2449.098,2.054688,-0.4213795,7.105991,7.029376,-0.572047,-4.803277,2.083657,-41,902,1466
2449.102,2.058594,-0.7565677,7.086837,6.981492,-0.5219796,-4.904477,2.178466,-40,907,1439
2449.105,2.0625,-1.450886,6.703765,6.502652,-0.4463458,-5.013134,2.304167,-54,972,1467
2449.109,2.066406,-1.824382,6.430826,6.311116,-0.370712,-5.073855,2.406432,-41,937,1446
2449.113,2.070312,-2.006341,6.23929,6.062119,-0.298274,-5.13777,2.504437,-44,930,1431
2449.117,2.074219,-2.063802,6.29675,5.827487,-0.2482066,-5.210208,2.583266,-36,910,1460
2449.121,2.078125,-1.94888,6.593631,5.45878,-0.2109224,-5.240036,2.668487,-34,901,1404
2449.125,2.082031,-2.035071,6.766014,5.453991,-0.1842907,-5.219796,2.733469,-30,920,1420
2449.129,2.085938,-2.336741,6.900089,5.564125,-0.1715076,-5.200621,2.806972,-51,895,1453
2449.133,2.089844,-2.724601,6.991069,5.60722,-0.165116,-5.169728,2.87941,-45,940,1460
2449.137,2.09375,-3.308787,7.302315,5.707777,-0.1576591,-5.116465,2.987001,-59,930,1413
2449.141,2.097656,-3.701436,7.532158,6.023811,-0.1523328,-5.075985,3.072223,-49,906,1378
2449.145,2.101562,-4.141969,7.891289,6.287174,-0.1555286,-5.044027,3.156379,-34,921,1438
2449.148,2.105469,-4.472369,8.135497,6.41646,-0.1597897,-4.99396,3.244795,-78,953,1423
2449.152,2.109375,-4.970363,8.389283,6.71813,-0.1406149,-4.902347,3.379019,-58,941,1408
2449.156,2.113281,-5.363012,8.738836,7.058106,-0.1267665,-4.837366,3.489806,-17,928,1403
2449.16,2.117188,-5.880159,9.083601,7.465121,-0.1118528,-4.779842,3.60379,-47,946,1409
2449.164,2.121094,-6.382942,9.562441,7.833828,-0.09693906,-4.703142,3.719903,-72,935,1426
2449.168,2.125,-7.426814,9.730036,8.346187,-0.08522115,-4.584898,3.88928,-52,924,1421
2449.172,2.128906,-8.312668,9.658209,8.753201,-0.06498113,-4.514591,4.017112,-27,911,1412
2449.176,2.132812,-9.040505,9.682152,9.203311,-0.03089267,-4.468784,4.146009,-95,920,1454
2449.18,2.136719,-9.538499,10.29028,9.610325,-0.008522115,-4.45174,4.258927,-96,932,1435
2449.184,2.140625,-10.0317,11.23838,9.983821,-0.006391587,-4.4315,4.394216,-52,939,1393
2449.188,2.144531,-10.51055,11.83214,10.37647,-0.01597897,-4.384628,4.503938,-20,918,1413
2449.191,2.148438,-11.08515,11.9758,10.91756,-0.02130529,-4.335626,4.612595,-36,900,1429
2449.195,2.152344,-11.77947,11.90397,11.37246,-0.02876214,-4.29195,4.716991,-80,937,1425
2449.199,2.15625,-12.62702,11.64061,11.83693,-0.04687164,-4.247209,4.837366,-96,948,1382
2449.203,2.160156,-12.94784,11.41077,12.10508,-0.05219796,-4.213121,4.889564,-53,949,1412
2449.207,2.164062,-13.21599,11.36767,12.34929,-0.04474111,-4.172641,4.926848,-93,915,1426
2449.211,2.167969,-13.43626,11.38203,12.76109,-0.0181095,-4.122573,4.95348,-100,959,1415
2449.215,2.171875,-13.84327,11.39161,13.16811,0.02663161,-4.052266,4.980111,-86,942,1398
2449.219,2.175781,-14.19283,11.69807,13.88637,0.07243798,-3.962784,4.999286,-97,877,1377
2449.223,2.179688,-14.62857,12.26789,14.48013,0.09054748,-3.891411,4.99396,-128,920,1424
2449.227,2.183594,-15.16008,13.04361,14.93024,0.07456851,-3.813647,4.977981,-131,909,1406
2449.23,2.1875,-15.83525,14.04439,15.37556,0.04900216,-3.729491,4.947088,-89,945,1390
2449.234,2.191406,-17.1377,15.27979,15.99806,-0.01704423,-3.647465,4.886368,-105,924,1382
2449.238,2.195312,-18.40662,16.08425,16.27099,-0.07350325,-3.577158,4.810734,-81,937,1389
2449.242,2.199219,-19.80005,16.4769,16.85039,-0.1523328,-3.527091,4.723383,-144,962,1431
2449.246,2.203125,-21.21263,16.69716,16.96531,-0.2354234,-3.502589,4.627509,-127,982,1397
2449.25,2.207031,-22.93645,17.29092,16.86954,-0.350472,-3.485545,4.489024,-100,924,1413
2449.254,2.210938,-24.44001,17.36275,16.57745,-0.4335626,-3.478088,4.372911,-110,924,1425
2449.258,2.214844,-25.94357,17.24783,16.01721,-0.4878911,-3.469566,4.270645,-82,909,1399
2449.262,2.21875,-27.31784,16.77378,15.524,-0.5070659,-3.48661,4.174771,-167,955,1399
2449.266,2.222656,-29.28587,15.37556,14.98291,-0.4900216,-3.532417,4.017112,-105,925,1417
2449.27,2.226562,-30.32017,14.11621,14.17846,-0.4346279,-3.601659,3.880758,-103,897,1431
2449.273,2.230469,-31.04801,12.80898,13.57034,-0.3366236,-3.657053,3.750796,-154,979,1429
2449.277,2.234375,-32.044,10.70208,12.49294,-0.185356,-3.703924,3.642139,-131,980,1407
2449.281,2.238281,-33.56671,7.785944,10.75475,0.1257012,-3.692207,3.546265,-134,954,1419
2449.285,2.242188,-34.98886,5.81791,9.691728,0.4122573,-3.677293,3.516438,-125,949,1407
2449.289,2.246094,-36.08541,4.19943,8.494627,0.7254451,-3.696468,3.478088,-154,1015,1431
2449.293,2.25,-36.53073,3.131616,6.847417,1.008805,-3.706055,3.428021,-148,1009,1361
2449.297,2.253906,-35.76458,2.60968,4.659116,1.235707,-3.627225,3.348126,-141,930,1347
2449.301,2.257812,-35.03196,2.365471,2.633622,1.276187,-3.505785,3.306581,-141,967,1391
2449.305,2.261719,-34.43341,2.044648,0.5267244,1.198422,-3.338539,3.273558,-167,990,1407
2449.309,2.265625,-34.36637,1.742979,-1.853112,0.9715212,-3.148922,3.213903,-145,989,1395
2449.312,2.269531,-34.44777,3.768473,-6.641515,0.3760383,-3.036004,3.020025,-156,966,1383
2449.316,2.273438,-35.76458,7.891289,-9.648633,-0.4165184,-3.00298,2.722816,-182,960,1404
2449.32,2.277344,-39.62883,7.752425,-14.04439,-1.304949,-2.753709,2.248773,-144,970,1399
2449.324,2.28125,-43.56011,1.537077,-16.87433,-1.927063,-2.401106,1.629855,-131,996,1392
2449.328,2.285156,-46.61989,-10.75475,-19.53669,-2.006958,-2.238121,0.7062703,-130,992,1408
2449.332,2.289062,-46.46667,-18.95729,-21.0163,-1.458347,-2.262622,0.07137272,-146,971,1402
2449.336,2.292969,-44.11556,-23.67865,-22.02666,-0.5901565,-2.258361,-0.386691,-165,972,1390
2449.34,2.296875,-40.95043,-25.30192,-22.40015,0.3387541,-2.150769,-0.5954828,-155,1007,1376
2449.344,2.300781,-37.12449,-24.28678,-21.77287,1.197357,-1.832255,-0.644485,-140,1001,1414
2449.348,2.304688,-35.2618,-18.68914,-19.84314,1.923868,-1.245294,-0.7307714,-134,1003,1391
2449.352,2.308594,-34.32327,-12.22001,-17.27656,2.037851,-0.7648599,-0.8724516,-150,1019,1400
2449.355,2.3125,-33.20758,-5.300762,-14.42267,1.807754,-0.2897519,-1.035437,-151,1025,1393
2449.359,2.316406,-31.6274,0.248997,-11.91834,1.383779,0.1502023,-1.152616,-131,962,1386
2449.363,2.320312,-30.88041,3.883395,-8.777143,0.4569984,0.850081,-1.271926,-159,953,1380
2449.367,2.324219,-30.0185,3.931279,-6.023811,-0.350472,1.321993,-1.370995,-138,989,1380
2449.371,2.328125,-28.95547,3.691859,-3.835511,-1.073787,1.63305,-1.418932,-166,1005,1401
2449.375,2.332031,-27.80626,3.026271,-2.504335,-1.733185,1.908954,-1.395496,-131,928,1406
2449.379,2.335938,-26.72887,1.125275,-1.398214,-2.241316,2.310559,-1.314536,-132,988,1446
2449.383,2.339844,-26.60437,-0.818817,-0.1149217,-2.292449,2.526807,-1.25062,-158,1007,1456
2449.387,2.34375,-26.41283,-2.288857,1.364695,-2.146508,2.630138,-1.170726,-155,968,1399
2449.391,2.347656,-26.02976,-2.087744,3.466804,-1.915345,2.646117,-1.06846,-133,1007,1382
2449.395,2.351562,2.269703,24.63155,32.59945,-1.319863,2.217881,1.265534,-169,960,1410
2449.398,2.355469,20.35071,17.76019,34.68719,-2.166748,2.948652,3.894607,-143,1014,1433
2449.402,2.359375,50.68046,7.465121,26.1782,-0.9704559,2.572614,3.259709,-170,992,1379
2449.406,2.363281,75.47002,9.825804,39.79163,2.96037,2.067678,0.6402239,-123,939,1398
2449.41,2.367188,96.72575,18.66041,14.63336,0.8724516,3.001915,-5.139901,-128,989,1437
2449.414,2.371094,81.07725,3.117251,-0.7517793,-1.839712,5.935653,-9.223059,-178,978,1388
2449.418,2.375,23.44881,-21.61485,-0.5650316,-1.977131,8.266452,-10.75598,-144,999,1388
2449.422,2.378906,-80.28237,-80.06689,2.944868,-2.570483,8.637164,-8.80015,-118,941,1405
2449.426,2.382812,-134.6882,-56.33557,34.30891,-1.528654,6.085856,-3.056244,-145,947,1441
2449.43,2.386719,-84.31421,23.86061,20.94926,4.102333,1.679922,-1.100418,-136,941,1403
2449.434,2.390625,-46.81622,51.78179,8.853758,2.696184,1.495631,-0.6412892,-143,1000,1397
2449.438,2.394531,-21.87343,29.70247,15.78258,-1.061003,3.518568,-1.575526,-144,926,1395
2449.441,2.398438,-2.887407,-0.9050082,29.32418,0.7201188,2.512959,-3.006176,-105,932,1422
2449.445,2.402344,6.172252,-7.671022,25.23489,2.192314,1.06846,-2.759035,-126,967,1431
2449.449,2.40625,12.39239,-11.33894,15.97411,1.59044,1.201618,-2.323342,-108,969,1419
2449.453,2.410156,5.640739,12.22479,19.05306,-0.1544633,1.458347,-2.582201,-120,913,1389
2449.457,2.414062,-22.39057,36.39187,1.063026,-4.059723,1.797101,-4.408064,-114,974,1448
2449.461,2.417969,-34.85,59.71618,9.275137,-1.294296,0.7488809,-4.743623,-115,930,1421
2449.465,2.421875,-38.22104,57.34592,1.091756,-2.079396,-1.015197,-3.082875,-140,967,1355
2449.469,2.425781,-29.0273,29.11828,-8.566454,-2.112419,0.03089267,-1.3678,-144,976,1395
2449.473,2.429688,-12.1003,4.314351,8.446743,-1.415736,0.5422196,-0.44315,-134,955,1426
2449.477,2.433594,2.576161,-4.520253,8.844181,-1.906823,0.1065264,-0.4133226,-104,970,1409
2449.48,2.4375,11.41077,-9.902418,18.39705,-2.205097,0.1267665,-0.86606,-121,963,1417
2449.484,2.441406,7.374141,-14.00129,17.65484,-1.579787,-0.008522115,-1.462608,-135,927,1418
2449.488,2.445312,-7.536947,-14.45619,18.23903,-1.257012,-0.06924219,-1.486044,-152,943,1435
2449.492,2.449219,-14.48013,-7.829039,15.19839,-0.9896307,-0.3067962,-0.8671253,-133,958,1419
2449.496,2.453125,-14.42746,5.066131,9.375694,-0.4974785,-0.6157228,-0.5049353,-117,947,1403
2449.5,2.457031,-9.203311,17.25741,2.202666,-0.40267,-0.5763081,-0.1800297,-90,913,1390
2449.504,2.460938,-1.70946,21.35628,0.5650316,-0.5464807,-0.2183792,0.09374327,-152,957,1410
2449.508,2.464844,0.2825158,12.15776,4.836287,-0.6657903,0.1065264,-0.108657,-125,956,1428
2449.512,2.46875,-1.11091,2.580949,8.350975,-0.5667207,0.2322276,-0.4889564,-129,984,1405
2449.516,2.472656,-4.098873,-4.276044,11.69807,-0.5305017,0.2759035,-0.5070659,-122,977,1394
2449.52,2.476562,-6.517017,-5.463568,12.72279,-0.4420847,0.1022654,-0.1800297,-105,947,1382
2449.523,2.480469,-6.574478,-0.3687071,10.34774,-0.2364887,-0.1661813,0.09480853,-132,925,1385
2449.527,2.484375,-4.965574,5.023035,7.867347,-0.1203749,-0.2034655,0.06072007,-109,940,1393
2449.531,2.488281,-3.078943,8.571242,6.172252,-0.1161138,-0.1789644,0.05432849,-130,929,1400
2449.535,2.492188,-2.217031,9.639056,5.386954,-0.169377,-0.1267665,0.05432849,-99,949,1421
2449.539,2.496094,-2.72939,8.451532,5.918467,-0.2514024,-0.002130529,-0.03515373,-130,981,1403
2449.543,2.5,-3.706224,5.923255,7.311892,-0.2663161,0.04048005,-0.1118528,-130,954,1400
2449.547,2.503906,-4.644751,2.873042,8.585607,-0.2258361,0.01384844,-0.1246359,-128,993,1397
2449.551,2.507812,-4.946421,1.340753,9.050082,-0.1715076,-0.04900216,-0.07563377,-121,955,1366
2449.555,2.511719,-4.22816,2.360683,9.002198,-0.1022654,-0.128897,0.04687164,-130,965,1385
2449.559,2.515625,-3.284845,3.687071,8.236054,-0.05006743,-0.1565939,0.08415589,-145,963,1409
2449.562,2.519531,-2.652775,4.683058,7.589619,-0.00958738,-0.1299623,0.03728426,-117,917,1405
2449.566,2.523438,-2.494758,4.941632,7.474698,0.002130529,-0.08522115,-0.02769688,-95,953,1421
2449.57,2.527344,-3.203442,4.333505,7.560889,0.01171791,-0.01278317,-0.04154531,-140,948,1415
2449.574,2.53125,-3.926491,3.825934,8.044518,0.03195793,0.01917476,-0.01704423,-155,953,1406
2449.578,2.535156,-4.290409,3.576937,8.274361,0.06072007,0.01917476,0.0181095,-104,941,1397
2449.582,2.539062,-4.122815,3.490746,8.183381,0.1054612,0.00958738,0.04580637,-148,950,1419
2449.586,2.542969,-3.438074,3.974375,7.953538,0.1533981,0.007456851,0.06924219,-109,973,1435
2449.59,2.546875,-3.064578,4.448427,7.666234,0.1704423,0.006391587,0.07243798,-133,999,1362
2449.594,2.550781,-2.863465,4.793192,7.412448,0.1789644,0.02556635,0.05432849,-93,971,1391
2449.598,2.554688,-3.083732,5.023035,7.307103,0.1789644,0.04900216,0.0298274,-119,910,1410
2449.602,2.558594,-3.433285,5.023035,7.321469,0.1757686,0.07137272,0.008522115,-146,941,1417
2449.605,2.5625,-3.663129,4.922479,7.40766,0.1715076,0.07243798,0.01065264,-143,965,1388
2449.609,2.566406,-3.610456,4.817134,7.364564,0.1683118,0.07030745,0.01065264,-125,955,1401
2449.613,2.570312,-3.361459,4.932055,7.364564,0.1704423,0.07563377,0.006391587,-136,951,1440
2449.617,2.574219,-2.978387,5.214571,7.307103,0.1523328,0.07137272,-0.02024002,-131,935,1418
2449.621,2.578125,-2.839523,5.396531,7.173028,0.1342233,0.06711166,-0.05539375,-127,1018,1400
2449.625,2.582031,-2.935291,5.544971,7.034164,0.1097222,0.0660464,-0.0958738,-105,928,1402
2449.629,2.585938,-3.174711,5.779603,6.995857,0.07989483,0.07456851,-0.1225054,-70,907,1427
2449.633,2.589844,-3.519476,5.865794,7.16824,0.05006743,0.07137272,-0.1459412,-120,962,1420
2449.637,2.59375,-3.687071,5.985504,7.101202,0.01065264,0.04261058,-0.1768339,-137,976,1400
2449.641,2.597656,-3.677494,5.837064,7.173028,-0.005326322,0.02663161,-0.2034655,-112,929,1389
2449.645,2.601562,-3.715801,5.899313,7.125144,-0.02450108,0.001065264,-0.2205097,-124,974,1415
2449.648,2.605469,-3.758897,5.655104,7.153875,-0.04580637,-0.02024002,-0.2332929,-68,981,1433
2449.652,2.609375,-3.845088,5.626374,7.153875,-0.07243798,-0.04900216,-0.2482066,-110,974,1388
2449.656,2.613281,-3.89776,5.640739,7.163451,-0.08522115,-0.06817692,-0.2524677,-116,948,1420
2449.66,2.617188,-3.888183,5.554548,7.149086,-0.09480853,-0.08948221,-0.2535329,-132,938,1427
2449.664,2.621094,-3.845088,5.3678,7.225701,-0.1065264,-0.1054612,-0.2588593,-157,968,1429
2449.668,2.625,-3.835511,4.903325,7.388506,-0.1054612,-0.1118528,-0.2695119,-92,954,1367
2449.672,2.628906,-3.754108,4.778827,7.37893,-0.1043959,-0.1150486,-0.2695119,-114,943,1382
2449.676,2.632812,-3.825934,4.582502,7.608773,-0.1097222,-0.1257012,-0.257794,-107,933,1414
2449.68,2.636719,-3.840299,4.299986,7.651869,-0.09054748,-0.1406149,-0.2503371,-111,930,1417
2449.684,2.640625,-3.754108,4.127604,7.474698,-0.07669904,-0.1257012,-0.241815,-116,929,1381
2449.688,2.644531,-3.787627,4.376601,7.560889,-0.06924219,-0.1139833,-0.2247708,-123,957,1391
2449.691,2.648438,-3.888183,4.491522,7.73806,-0.05752428,-0.1097222,-0.2002697,-116,971,1407
2449.695,2.652344,-3.912126,4.194641,7.8865,-0.03834952,-0.1139833,-0.1928129,-133,960,1438
2449.699,2.65625,-3.65834,4.189853,7.76679,0,-0.1022654,-0.2002697,-100,974,1398
2449.703,2.660156,-3.433285,4.46758,7.771579,0.008522115,-0.09374327,-0.1970739,-109,964,1396
2449.707,2.664062,-3.476381,4.539406,7.570466,0.01917476,-0.09161274,-0.1949434,-106,968,1422
2449.711,2.667969,-3.62961,4.64954,7.37893,0.0330232,-0.07137272,-0.2002697,-141,947,1427
2449.715,2.671875,-3.816357,4.936844,7.589619,0.04367584,-0.0628506,-0.2034655,-142,949,1431
2449.719,2.675781,-4.050989,4.544195,7.541735,0.05645902,-0.06817692,-0.201335,-114,905,1382
2449.723,2.679688,-4.141969,4.429273,7.493851,0.05965481,-0.06498113,-0.1960087,-122,954,1406
2449.727,2.683594,-3.993528,4.544195,7.580042,0.05858954,-0.07456851,-0.1800297,-135,964,1389
2449.73,2.6875,-3.883395,4.79798,7.412448,0.0479369,-0.08415589,-0.1555286,-107,961,1390
2449.734,2.691406,-3.797204,4.750096,7.302315,0.03728426,-0.07030745,-0.1502023,-70,919,1387
2449.738,2.695312,-3.768473,4.874595,7.383718,0.0298274,-0.05965481,-0.1502023,-84,936,1403
2449.742,2.699219,-3.773262,4.88896,7.345411,0.02237055,-0.05219796,-0.1427454,-105,957,1391
2449.746,2.703125,-3.816357,4.759673,7.417237,0.01917476,-0.03941478,-0.1310275,-115,972,1370
2449.75,2.707031,-3.74932,4.79798,7.37893,0.004261058,-0.03834952,-0.1299623,-112,956,1388
2449.754,2.710938,-3.744531,4.922479,7.422025,0.004261058,-0.03515373,-0.1342233,-130,945,1413
2449.758,2.714844,-3.653552,4.912902,7.350199,0.002130529,-0.02343582,-0.1363538,-121,980,1418
2449.762,2.71875,-3.720589,4.817134,7.374141,0.001065264,-0.006391587,-0.1459412,-124,967,1391
2449.766,2.722656,-3.696647,4.826711,7.522582,0.004261058,-0.002130529,-0.1523328,-102,921,1382
2449.77,2.726562,-3.763685,4.740519,7.642292,0.00958738,0.007456851,-0.1533981,-128,944,1393
2449.773,2.730469,-3.624821,4.960786,7.522582,-0.01704423,0.02024002,-0.1565939,-128,939,1383
2449.777,2.734375,-3.624821,4.304775,7.402872,0.02130529,0.05752428,-0.1789644,-130,963,1404
2449.781,2.738281,-3.576937,4.496311,8.169016,0.0298274,0.05965481,-0.1704423,-109,961,1374
2449.785,2.742188,-3.845088,3.394978,7.426814,0.05006743,0.09374327,-0.1725728,-142,917,1420
2449.789,2.746094,-3.677494,3.701436,8.049306,0.1150486,0.1470065,-0.1896171,-138,964,1427
2449.793,2.75,-3.600879,3.86903,8.058883,0.1065264,0.1480718,-0.169377,-152,939,1389
2449.797,2.753906,-3.768473,3.720589,7.824251,0.1949434,0.1789644,-0.1768339,-112,934,1394
2449.801,2.757812,-3.653552,4.577714,7.987057,0.2183792,0.2077266,-0.2024002,-89,958,1421
2449.805,2.761719,-3.529053,4.774038,7.94875,0.2279666,0.2354234,-0.1970739,-123,949,1390
2449.809,2.765625,-3.428497,4.209007,7.915231,0.2993393,0.2716424,-0.2002697,-105,956,1374
2449.812,2.769531,-3.452439,3.902549,8.2169,0.3888215,0.3121225,-0.2631203,-105,929,1381
2449.816,2.773438,-2.892196,5.382165,8.331822,0.3930826,0.3366236,-0.2620551,-159,953,1413
2449.82,2.777344,-2.571373,5.425261,8.101978,0.3611246,0.390952,-0.1928129,-120,967,1419
2449.824,2.78125,-2.710236,4.007894,8.010999,0.4314321,0.4868258,-0.1981392,-107,957,1441
2449.828,2.785156,-3.375824,3.955221,8.274361,0.5134575,0.5752428,-0.3067962,-104,944,1399
2449.832,2.789062,-3.481169,5.209783,8.240842,0.5283712,0.5976133,-0.3014698,-120,946,1419
2449.836,2.792969,-3.356671,5.755661,8.054094,0.551807,0.6295713,-0.2524677,-145,970,1430
2449.84,2.796875,-3.126827,5.602432,8.015787,0.5869607,0.684965,-0.2727077,-147,968,1402
2449.844,2.800781,-2.930503,5.506664,7.73806,0.6412892,0.777643,-0.3685815,-123,933,1390
2449.848,2.804688,-2.829946,5.430049,7.943961,0.6881608,0.8383631,-0.40267,-94,896,1444
2449.852,2.808594,-2.992752,5.444415,7.963115,0.7307714,0.8799084,-0.4101268,-110,961,1440
2449.855,2.8125,-2.96881,5.664681,8.039729,0.7392935,0.9363674,-0.4239752,-116,974,1400
2449.859,2.816406,-2.738967,6.205771,8.264784,0.7499462,1.052481,-0.4484763,-104,914,1386
2449.863,2.820312,-2.437297,6.83784,8.374917,0.6945524,1.152616,-0.4655206,-89,931,1441
2449.867,2.824219,-2.274492,7.493851,8.595184,0.5507417,1.2911,-0.4804343,-106,994,1446
2449.871,2.828125,-2.135628,6.794744,7.829039,0.3994742,1.469,-0.5273059,-109,962,1389
2449.875,2.832031,-2.566584,5.731719,8.255207,0.4729774,1.644768,-0.6263755,-135,926,1421
2449.879,2.835938,-2.930503,5.415684,8.288726,0.4324974,1.735316,-0.6860303,-131,948,1373
2449.883,2.839844,-3.136404,5.568913,8.092402,0.3941478,1.842907,-0.7126619,-126,934,1367
2449.887,2.84375,-3.222595,5.760449,8.020576,0.370712,1.973935,-0.7222493,-145,944,1427
2449.891,2.847656,-3.366248,5.544971,8.255207,0.3611246,2.146508,-0.7787083,-132,899,1463
2449.895,2.851562,-3.471592,5.267244,8.508993,0.3472762,2.259426,-0.8468852,-143,920,1404
2449.898,2.855469,-3.797204,5.176264,8.394071,0.3259709,2.389388,-0.9363674,-118,934,1413
2449.902,2.859375,-3.907337,5.626374,8.149862,0.2130529,2.532134,-1.023719,-93,955,1434
2449.906,2.863281,-4.730942,5.990293,8.609549,0.1778992,2.675944,-1.110006,-97,949,1391
2449.91,2.867188,-4.616021,6.263232,8.341399,0.1683118,2.734534,-1.186705,-148,914,1426
2449.914,2.871094,-4.793192,4.496311,6.981492,0.2162487,2.829342,-1.200553,-136,933,1454
2449.918,2.875,-4.213795,6.536171,9.442731,0.2322276,2.929477,-1.252751,-112,957,1408
2449.922,2.878906,-4.22816,5.109226,7.575254,0.165116,3.032808,-1.361408,-109,898,1420
2449.926,2.882812,-4.443638,5.750872,8.178593,0.40267,3.154248,-1.52972,-90,920,1445
2449.93,2.886719,-4.975151,7.546524,8.767566,0.2045308,3.245861,-1.59257,-123,921,1415
2449.934,2.890625,-4.663905,7.589619,7.431602,0.149137,3.374758,-1.605354,-89,951,1426
2449.938,2.894531,-4.553772,7.038953,7.517793,0.278034,3.490872,-1.647964,-133,903,1412
2449.941,2.898438,-4.367024,7.455544,7.321469,0.1821602,3.659183,-1.789644,-142,908,1443
2449.945,2.902344,-4.22816,6.454768,6.493075,0.1193096,3.837082,-1.830124,-127,934,1422
2449.949,2.90625,-4.328717,8.054094,8.140286,0.1299623,4.038417,-1.947303,-119,934,1428
2449.953,2.910156,-3.969586,4.989516,6.775591,0.2258361,4.180098,-2.145443,-98,953,1426
2449.957,2.914062,-4.520253,3.878607,7.967903,0.6988135,4.300473,-2.407498,-102,907,1451
2449.961,2.917969,-4.381389,6.660669,9.165004,0.5624596,4.457066,-2.495915,-120,900,1441
2449.965,2.921875,-2.920926,8.360552,8.652645,0.4857606,4.725513,-2.505502,-109,919,1420
2449.969,2.925781,-2.27928,7.522582,8.461109,0.5986786,5.064267,-2.568353,-106,915,1392
2449.973,2.929688,-2.604891,5.779603,7.795521,0.6977482,5.534049,-2.817624,-102,888,1452
2449.977,2.933594,-3.040636,5.72693,7.728483,0.7552725,5.850432,-3.02322,-108,963,1399
2449.98,2.9375,-3.5099,5.827487,7.881712,0.9161274,6.128466,-3.205381,-130,916,1433
2449.984,2.941406,-3.883395,5.72693,8.106767,1.12918,6.40437,-3.428021,-111,914,1422
2449.988,2.945312,-3.773262,3.921702,7.862558,1.597897,6.828345,-3.793407,-112,861,1445
2449.992,2.949219,-3.835511,3.055001,8.839393,2.106028,7.187339,-4.016047,-124,893,1449
2449.996,2.953125,-4.141969,4.429273,10.31422,2.534264,7.587879,-4.169445,-104,930,1425
2450,2.957031,-4.165911,7.560889,10.05086,2.75797,8.008658,-4.382498,-91,889,1451
2450.004,2.960938,-5.27682,13.28303,8.327033,2.853843,8.551943,-4.794755,-88,946,1455
2450.008,2.964844,-8.207323,17.23825,6.885724,2.853843,8.934373,-5.091964,-100,915,1463
2450.012,2.96875,-13.61822,19.68513,8.00621,2.728142,9.216668,-5.33804,-111,912,1462
2450.016,2.972656,-23.89413,20.61886,5.631162,2.225337,9.2433,-5.584116,-104,902,1452
2450.02,2.976562,-37.56024,19.45528,9.615114,1.561678,8.746886,-5.863215,-77,913,1478
2450.023,2.980469,-46.27513,21.83991,13.93425,1.365669,7.825433,-5.771603,-70,922,1499
2450.027,2.984375,-48.52089,21.93568,14.80095,1.14729,6.468286,-5.541506,-73,937,1451
2450.031,2.988281,-44.20654,17.85117,15.38035,1.039698,5.081311,-5.294364,-65,917,1469
2450.035,2.992188,-34.70156,12.14339,13.74751,1.083374,3.8488,-5.300756,-69,935,1494
2450.039,2.996094,-26.97308,11.37725,12.17691,1.245294,3.517503,-5.413674,-62,925,1463
2450.043,3,-20.14481,14.4945,14.04439,1.336907,3.291667,-5.507417,-72,884,1449
2450.047,3.003906,-14.83926,22.0889,11.96143,1.281513,3.174488,-5.567072,-119,960,1455
2450.051,3.007812,-12.42591,24.45438,11.17134,1.416802,3.178749,-5.496764,-32,869,1456
2450.055,3.011719,-12.28225,23.87977,13.19684,1.173921,3.105246,-5.430718,-84,924,1479
2450.059,3.015625,-9.44752,23.10883,11.8513,0.9161274,3.233078,-5.438175,-45,939,1457
2450.062,3.019531,-6.636727,20.91096,10.09874,0.6838998,3.435478,-5.285842,-55,937,1436
2450.066,3.023438,-4.424485,18.53591,7.819463,0.737163,3.610181,-4.903412,-64,895,1502
2450.07,3.027344,-5.171476,17.00362,7.891289,1.110006,3.822169,-4.038417,-102,921,1470
2450.074,3.03125,-7.805097,16.10819,6.981492,1.554221,3.964914,-3.274623,-34,916,1463
2450.078,3.035156,-12.51689,15.83525,11.1091,2.164617,3.833887,-2.142247,-50,951,1487
2450.082,3.039062,-15.88792,16.59182,15.50006,2.404302,3.52496,-1.669269,-69,889,1522
2450.086,3.042969,-19.73301,23.48712,24.41607,2.342516,2.322276,-1.010936,-58,915,1486
2450.09,3.046875,-16.61576,28.50536,30.20525,1.910019,1.133441,-0.5613944,-40,931,1495
2450.094,3.050781,-9.878476,26.04413,24.84702,1.929194,-0.1097222,0.07563377,-39,943,1486
2450.098,3.054688,-8.30788,29.65458,24.50226,3.029612,-1.184574,1.00774,-59,930,1511
2450.102,3.058594,-5.372589,32.52284,16.30451,1.302818,-2.001632,1.144094,-61,938,1486
2450.105,3.0625,2.035071,33.9019,10.66377,-0.02876214,-2.341451,0.8330368,-44,923,1482
2450.109,3.066406,9.892841,32.99689,5.535394,-0.4282363,-2.441586,1.16753,-68,886,1463
2450.113,3.070312,12.99573,28.03131,4.338293,-0.5400891,-2.209358,2.137986,-58,909,1499
2450.117,3.074219,8.06846,16.96531,9.198523,-0.8724516,-1.699097,2.990197,-62,899,1458
2450.121,3.078125,1.173159,11.32457,12.95263,-1.358212,-1.717206,2.729207,-13,964,1484
2450.125,3.082031,-3.203442,9.648633,14.23592,-1.79071,-2.150769,2.196575,-28,931,1492
2450.129,3.085938,-2.557007,10.59195,13.89595,-1.898301,-2.783536,1.93239,-75,899,1499
2450.133,3.089844,2.916138,11.75553,11.09473,-1.694836,-3.499394,2.144377,-58,952,1447
2450.137,3.09375,6.938396,10.54885,9.313444,-1.437042,-3.70712,2.430933,-51,954,1456
2450.141,3.097656,8.729259,7.809886,6.976704,-1.113201,-3.66451,2.60031,-24,918,1463
2450.145,3.101562,8.485051,5.415684,4.874595,-0.7158577,-3.508981,2.685532,-61,919,1494
2450.148,3.105469,7.321469,3.08852,5.027823,-0.2961435,-3.36517,2.779275,-57,996,1490
2450.152,3.109375,6.698976,1.824382,5.343858,-0.03941478,-3.327886,2.821885,-48,928,1492
2450.156,3.113281,6.076484,1.096544,5.200206,0.2482066,-3.303385,2.827212,-63,878,1473
2450.16,3.117188,5.224148,1.312023,5.434838,0.4974785,-3.271427,2.781405,-64,895,1451
2450.164,3.121094,3.557784,2.911349,6.397307,0.6391587,-3.316168,2.654639,-78,918,1417
2450.168,3.125,2.303222,5.061342,7.105991,0.6040049,-3.455718,2.575809,-54,924,1455
2450.172,3.128906,1.197101,7.666234,7.584831,0.4825648,-3.621899,2.570483,-25,946,1484
2450.176,3.132812,0.1963245,10.29507,8.283938,0.3110572,-3.790211,2.642921,-58,935,1468
2450.18,3.136719,-1.130063,12.95263,9.308656,0.04687164,-4.038417,2.809102,-63,937,1441
2450.184,3.140625,-2.001553,13.6661,9.706094,-0.1384844,-4.263188,2.94226,-32,901,1425
2450.188,3.144531,-2.39899,13.42668,9.773131,-0.2833603,-4.468784,3.065831,-107,910,1474
2450.191,3.148438,-2.590526,12.39718,9.619902,-0.4165184,-4.640292,3.20112,-80,899,1488
2450.195,3.152344,-2.389413,10.59195,9.08839,-0.556068,-4.771319,3.320429,-65,905,1435
2450.199,3.15625,-2.15957,8.09719,8.221689,-0.700944,-4.925783,3.431217,-87,950,1439
2450.203,3.160156,-1.675941,6.751649,7.393295,-0.813862,-5.003547,3.480219,-110,885,1471
2450.207,3.164062,-1.517924,5.736507,6.483498,-0.8735168,-5.039766,3.523895,-121,907,1495
2450.211,3.167969,-1.556231,4.893748,5.832275,-0.8522115,-5.031244,3.551592,-93,943,1428
2450.215,3.171875,-2.044648,3.955221,5.406107,-0.7659251,-4.977981,3.578223,-91,897,1414
2450.219,3.175781,-2.595315,3.485958,5.674258,-0.680704,-4.954545,3.600594,-68,926,1430
2450.223,3.179688,-3.150769,3.251326,5.808333,-0.5784386,-4.954545,3.634682,-82,912,1468
2450.227,3.183594,-3.543418,3.366248,5.803545,-0.479369,-4.952414,3.68475,-63,947,1435
2450.23,3.1875,-3.840299,3.888183,6.071695,-0.3557983,-4.934305,3.751861,-71,955,1439
2450.234,3.191406,-3.983952,4.539406,6.406884,-0.2886867,-4.925783,3.78595,-84,914,1452
2450.238,3.195312,-4.036624,5.137957,6.536171,-0.2503371,-4.907673,3.801929,-107,920,1434
2450.242,3.199219,-4.118027,5.875371,6.804321,-0.237554,-4.861867,3.80832,-142,918,1446
2450.246,3.203125,-4.266467,6.651092,7.173028,-0.2226403,-4.789429,3.821104,-61,958,1423
2450.25,3.207031,-4.548983,7.029376,7.632715,-0.2322276,-4.724448,3.830691,-82,935,1458
2450.254,3.210938,-4.941632,7.16824,8.044518,-0.2599245,-4.649879,3.837082,-79,908,1451
2450.258,3.214844,-5.530606,7.144298,8.432378,-0.2833603,-4.57318,3.838148,-82,943,1439
2450.262,3.21875,-6.459556,6.947973,9.097966,-0.2695119,-4.489024,3.859453,-96,974,1427
2450.266,3.222656,-7.058106,7.043741,9.753978,-0.2354234,-4.446414,3.911651,-69,893,1470
2450.27,3.226562,-7.508216,7.120356,10.20888,-0.1906823,-4.4315,3.980893,-97,937,1429
2450.273,3.230469,-7.852981,7.340622,10.74997,-0.1438107,-4.410195,4.041613,-106,922,1430
2450.277,3.234375,-8.350975,7.958326,11.58315,-0.08415589,-4.380367,4.117247,-152,922,1440
2450.281,3.238281,-8.777143,8.312668,12.24395,-0.05219796,-4.363323,4.173706,-112,956,1452
2450.285,3.242188,-9.466673,8.90643,12.75152,-0.04367584,-4.351605,4.235491,-107,921,1454
2450.289,3.246094,-10.15142,9.337386,13.24472,-0.05006743,-4.344148,4.287689,-100,962,1416
2450.293,3.25,-11.24317,9.744401,14.05875,-0.05645902,-4.328169,4.35267,-104,934,1420
2450.297,3.253906,-11.83693,9.830592,14.52323,-0.04580637,-4.3303,4.394216,-106,949,1432
2450.301,3.257812,-12.3445,9.854534,14.96855,-0.04474111,-4.348409,4.414456,-132,884,1431
2450.305,3.261719,-12.718,9.935937,15.39951,-0.05326322,-4.382498,4.421913,-102,907,1435
2450.309,3.265625,-12.69406,10.38126,15.83525,-0.05752428,-4.426174,4.40913,-120,948,1399
2450.312,3.269531,-12.67012,10.72124,16.11777,-0.07030745,-4.432565,4.382498,-68,924,1436
2450.316,3.273438,-12.56956,11.20008,16.61097,-0.1033307,-4.422978,4.347344,-100,915,1434
2450.32,3.277344,-12.68448,11.83214,16.98925,-0.165116,-4.397412,4.307929,-107,945,1406
2450.324,3.28125,-13.08192,12.50252,17.44415,-0.2524677,-4.342018,4.257862,-95,974,1427
2450.328,3.285156,-13.55597,13.04361,17.87032,-0.2993393,-4.261058,4.209925,-61,922,1421
2450.332,3.289062,-14.36521,13.50809,18.26297,-0.3557983,-4.187554,4.159858,-139,964,1421
2450.336,3.292969,-15.27022,14.07791,18.63647,-0.4101268,-4.118312,4.085289,-115,944,1431
2450.34,3.296875,-16.70195,14.53759,18.85194,-0.4484763,-4.034156,3.997937,-136,912,1391
2450.344,3.300781,-18.15284,15.34204,19.29727,-0.4772385,-3.918043,3.891411,-132,939,1413
2450.348,3.304688,-19.91976,15.73948,19.28769,-0.4868258,-3.847735,3.831756,-135,958,1405
2450.352,3.308594,-21.89258,15.82567,19.00038,-0.4772385,-3.790211,3.782754,-138,963,1400
2450.355,3.3125,-23.64992,15.50964,18.51197,-0.42291,-3.723099,3.742274,-128,957,1399
2450.359,3.316406,-25.62753,14.48971,17.74582,-0.2833603,-3.652792,3.699663,-88,934,1427
2450.363,3.320312,-26.7959,13.28303,16.94616,-0.112918,-3.58355,3.687945,-90,963,1433
2450.367,3.324219,-28.08877,11.91834,16.06509,0.09906959,-3.498328,3.702859,-122,956,1426
2450.371,3.328125,-29.62106,10.64462,15.04995,0.3270362,-3.412042,3.734817,-119,969,1379
2450.375,3.332031,-32.10146,9.902418,13.59907,0.6103965,-3.314038,3.779558,-122,921,1415
2450.379,3.335938,-33.80134,9.945514,12.32056,0.7925567,-3.289537,3.791276,-123,942,1409
2450.383,3.339844,-35.05111,10.50576,10.9846,0.9044095,-3.28208,3.781689,-176,962,1354
2450.387,3.34375,-35.74064,11.18092,8.925584,0.9203885,-3.2416,3.761449,-162,984,1373
2450.391,3.347656,-36.09498,11.04685,6.220136,0.813862,-3.156379,3.729491,-132,946,1424
2450.395,3.351562,-36.05668,10.09395,3.361459,0.624245,-3.096724,3.677293,-152,970,1360
2450.398,3.355469,-36.02316,9.217676,-0.9193734,0.2812298,-3.08181,3.593137,-161,1002,1363
2450.402,3.359375,-34.9745,10.58716,-4.520253,-0.2545982,-3.165966,3.456783,-122,935,1415
2450.406,3.363281,-35.6736,12.28225,-10.04128,-1.235707,-3.175553,3.134008,-112,961,1455
2450.41,3.367188,-38.29286,7.599196,-14.37479,-1.841842,-2.855974,2.617355,-147,961,1442
2450.414,3.371094,-41.63517,-0.9002198,-16.85518,-2.014415,-2.449043,1.876996,-156,971,1384
2450.418,3.375,-44.48906,-10.05086,-17.79371,-1.690575,-2.245577,1.096157,-89,967,1409
2450.422,3.378906,-44.95353,-19.34036,-18.81843,-0.5741775,-2.288188,0.4143879,-126,944,1450
2450.426,3.382812,-42.16189,-23.38177,-19.36909,0.5848302,-2.333994,0.3004046,-136,918,1434
2450.43,3.386719,-38.39821,-25.22052,-19.87666,1.782187,-2.184857,0.4207795,-132,980,1374
2450.434,3.390625,-35.29053,-24.33467,-19.51753,2.733469,-1.718272,0.5901565,-125,979,1383
2450.438,3.394531,-34.16047,-18.65083,-17.69794,3.295928,-1.018393,0.644485,-152,987,1419
2450.441,3.398438,-34.98886,-11.13783,-15.67723,3.198989,-0.4804343,0.5475459,-150,976,1420
2450.445,3.402344,-36.11893,-3.265691,-13.85285,2.788862,0.02343582,0.4410195,-157,1006,1411
2450.449,3.40625,-37.20111,2.753332,-11.92791,2.11455,0.5443501,0.330232,-145,973,1360
2450.453,3.410156,-36.01837,4.826711,-9.284714,0.902279,1.231446,0.005326322,-132,983,1414
2450.457,3.414062,-33.55713,3.873818,-7.594408,0.05006743,1.593636,-0.309992,-144,948,1411
2450.461,3.417969,-31.37362,2.03986,-6.579266,-0.8617989,1.948369,-0.5347627,-138,986,1407
2450.465,3.421875,-30.49734,-0.7422025,-6.210559,-1.626659,2.380866,-0.6753777,-127,990,1370
2450.469,3.425781,-30.74634,-3.385401,-4.185065,-2.003762,2.730273,-0.8202536,-129,950,1405
2450.473,3.429688,-30.53086,-4.88896,-2.734178,-2.049569,2.926281,-1.00561,-123,959,1410
2450.477,3.433594,-29.71683,-4.750096,-1.666364,-1.922802,2.984871,-1.054612,-155,953,1391
2450.48,3.4375,-28.64423,-4.084508,-0.4692635,-1.704423,3.040265,-1.049285,-154,986,1411
2450.484,3.441406,-8.959103,8.983045,7.570466,-1.233576,2.891128,-0.664725,-153,959,1382
2450.488,3.445312,5.999869,21.31797,30.42073,-2.17527,3.077549,2.734534,-174,947,1408
2450.492,3.449219,32.43664,12.01889,18.0858,-2.453304,3.578223,2.67701,-119,1003,1386
2450.496,3.453125,56.34993,9.519346,29.83654,1.00561,2.624812,0.7126619,-151,968,1375
2450.5,3.457031,80.56967,18.64604,33.16927,3.059439,2.536395,-2.518285,-121,948,1429
2450.504,3.460938,88.24548,6.076484,1.546654,-0.4356932,5.487177,-7.302388,-153,937,1401
2450.508,3.464844,54.41063,-12.82813,5.798756,-1.394431,8.349543,-9.855827,-141,960,1403
2450.512,3.46875,-22.98912,-50.32612,1.977611,-2.260491,8.884305,-10.01881,-175,944,1366
2450.516,3.472656,-115.1419,-84.91754,4.189853,-3.567571,8.537029,-7.752995,-126,934,1422
2450.52,3.476562,-121.8936,4.371812,27.72486,0.7030745,4.903412,-2.180596,-132,967,1412
2450.523,3.480469,-76.5522,49.64617,10.21366,2.237055,2.541721,0.3238404,-161,952,1410
2450.527,3.484375,-36.55946,39.27927,18.77533,-0.1800297,4.056527,-0.4037352,-143,944,1395
2450.531,3.488281,-11.98059,15.73469,34.27539,-1.59257,4.524178,-2.450108,-111,936,1427
2450.535,3.492188,3.610456,-1.958457,38.37905,1.407214,2.385127,-3.030677,-98,915,1427
2450.539,3.496094,5.147534,-13.90552,28.35214,1.892975,1.425324,-2.106028,-156,958,1389
2450.543,3.5,3.126827,-19.42655,17.74582,1.139833,1.364604,-1.982457,-123,962,1391
2450.547,3.503906,-9.538499,5.559336,19.43613,-0.7797736,1.287905,-2.751578,-117,925,1412
2450.551,3.507812,-30.71761,31.7519,6.449979,-2.868757,0.9843043,-4.417652,-134,927,1430
2450.555,3.511719,-30.7607,45.4611,10.89362,-0.9960222,-0.221575,-4.248275,-128,969,1425
2450.559,3.515625,-24.51662,47.15141,-0.2873042,-1.295362,-1.54996,-2.63866,-116,944,1419
2450.562,3.519531,-14.93503,35.76937,-13.56076,-1.078048,-0.7307714,-1.100418,-107,944,1415
2450.566,3.523438,-4.673482,19.77611,-0.01915361,-1.569135,0.4964132,-0.4399542,-133,934,1401
2450.57,3.527344,1.623269,2.786851,0.6799533,-1.962217,0.4303668,-0.8181231,-106,961,1424
2450.574,3.53125,6.74686,-5.765238,11.56399,-2.359561,0.3696468,-1.496697,-95,926,1437
2450.578,3.535156,4.55856,-4.730942,18.04749,-2.485262,0.1757686,-1.880192,-63,916,1412
2450.582,3.539062,-9.758766,-7.891289,16.29972,-1.787514,0.002130529,-1.551025,-96,951,1411
2450.586,3.542969,-17.7554,-7.987057,18.89504,-1.258077,-0.1906823,-1.168595,-108,939,1416
2450.59,3.546875,-15.66766,-3.169923,13.01009,-0.7659251,-0.6380934,-0.8213189,-128,967,1414
2450.594,3.550781,-7.350199,9.02614,5.45878,-0.4154531,-0.8000136,-0.3813647,-118,904,1439
2450.598,3.554688,0.4596867,17.66442,-0.02873042,-0.7520767,-0.2908172,0.1299623,-137,909,1389
2450.602,3.558594,1.077391,14.91588,3.227384,-1.023719,0.09161274,-0.05539375,-119,935,1390
2450.605,3.5625,-1.412579,7.762002,7.671022,-0.9672601,0.1938781,-0.6274408,-107,944,1403
2450.609,3.566406,-5.363012,0.2825158,10.09874,-0.6988135,0.2716424,-0.84582,-88,887,1402
2450.613,3.570312,-8.178593,-4.299986,13.30218,-0.5997439,0.2514024,-0.4346279,-114,891,1440
2450.617,3.574219,-6.847417,-3.615245,11.89439,-0.3930826,-0.1406149,0.1171791,-101,920,1394
2450.621,3.578125,-4.218583,1.996764,8.834604,-0.1992044,-0.2822951,0.07669904,-95,960,1387
2450.625,3.582031,-2.044648,7.580042,6.17704,-0.1885518,-0.1906823,0.005326322,-135,905,1425
2450.629,3.585938,-1.604115,9.303868,5.530606,-0.2492719,-0.07243798,0.02343582,-125,935,1416
2450.633,3.589844,-3.347094,7.613561,6.071695,-0.3217099,0.04048005,-0.07989483,-118,955,1421
2450.637,3.59375,-4.52983,5.90889,7.532158,-0.3334278,0.07456851,-0.1747034,-131,951,1398
2450.641,3.597656,-5.233725,3.677494,8.580819,-0.2833603,0.01597897,-0.1438107,-113,921,1436
2450.645,3.601562,-5.109226,1.92015,9.030929,-0.2173139,-0.05006743,-0.05965481,-86,952,1427
2450.648,3.605469,-3.873818,2.135628,9.035717,-0.1278317,-0.1097222,0.04048005,-97,920,1372
2450.652,3.609375,-2.925714,3.29921,8.403648,-0.07137272,-0.1470065,0.06391587,-111,964,1402
2450.656,3.613281,-2.537854,4.276044,7.771579,-0.04474111,-0.1352886,0.0298274,-107,941,1457
2450.66,3.617188,-2.743755,4.884171,7.532158,-0.02663161,-0.09374327,-0.0149137,-99,916,1423
2450.664,3.621094,-3.53863,4.807557,7.637503,-0.00958738,-0.05752428,-0.04900216,-88,927,1432
2450.668,3.625,-3.936068,4.189853,7.896077,0.01597897,-0.03941478,-0.05326322,-105,951,1390
2450.672,3.628906,-3.955221,3.739743,7.996634,0.05113269,-0.02769688,-0.03515373,-99,935,1437
2450.676,3.632812,-3.763685,3.768473,7.924807,0.07882957,-0.01704423,0.005326322,-118,942,1397
2450.68,3.636719,-3.452439,4.31914,7.690176,0.09374327,-0.003195793,0.05858954,-115,937,1411
2450.684,3.640625,-3.203442,4.740519,7.541735,0.1033307,0.006391587,0.05965481,-105,918,1402
2450.688,3.644531,-3.078943,4.874595,7.503428,0.1150486,0.02343582,0.03515373,-102,925,1419
2450.691,3.648438,-3.040636,4.860229,7.489063,0.1257012,0.04261058,0.005326322,-87,882,1405
2450.695,3.652344,-3.217807,4.630386,7.441179,0.128897,0.08309063,-0.01384844,-115,944,1386
2450.699,3.65625,-3.462016,4.707,7.402872,0.1235707,0.1043959,-0.01704423,-72,918,1361
2450.703,3.660156,-3.663129,4.951209,7.489063,0.1161138,0.1043959,-0.01704423,-136,944,1411
2450.707,3.664062,-3.667917,5.118803,7.455544,0.1118528,0.1097222,-0.02556635,-129,920,1396
2450.711,3.667969,-3.505111,4.965574,7.474698,0.1139833,0.1150486,-0.04048005,-108,955,1401
2450.715,3.671875,-3.361459,5.042189,7.43639,0.1065264,0.1043959,-0.05858954,-102,930,1395
2450.719,3.675781,-3.246537,5.104438,7.393295,0.08948221,0.0958738,-0.06817692,-68,895,1377
2450.723,3.679688,-3.256114,5.300762,7.240066,0.07563377,0.09374327,-0.09161274,-107,919,1453
2450.727,3.683594,-3.414132,5.712565,7.206547,0.05006743,0.08309063,-0.1257012,-77,910,1391
2450.73,3.6875,-3.481169,5.722142,7.19697,0.03408846,0.07030745,-0.1512675,-123,937,1417
2450.734,3.691406,-3.586514,5.659893,7.110779,0.02130529,0.07137272,-0.1757686,-88,933,1409
2450.738,3.695312,-3.711013,5.544971,7.19697,0.01171791,0.06178534,-0.1960087,-120,920,1430
2450.742,3.699219,-3.801992,5.430049,7.206547,-0.004261058,0.03408846,-0.2087918,-82,942,1411
2450.746,3.703125,-3.873818,5.334281,7.19697,-0.01704423,0.02130529,-0.2130529,-99,953,1414
2450.75,3.707031,-3.98874,5.449203,7.038953,-0.04048005,0.01065264,-0.2130529,-120,884,1418
2450.754,3.710938,-3.998317,5.521029,7.010222,-0.05326322,0.003195793,-0.2087918,-121,926,1417
2450.758,3.714844,-4.065354,5.410896,7.465121,-0.05752428,-0.007456851,-0.1992044,-91,930,1399
2450.762,3.71875,-3.926491,4.424485,7.680599,-0.0330232,-0.03728426,-0.2109224,-123,920,1397
2450.766,3.722656,-3.596091,4.328717,7.474698,-0.02876214,-0.0298274,-0.2183792,-86,910,1427
2450.77,3.726562,-3.505111,4.525041,7.666234,-0.04261058,-0.02343582,-0.1981392,-125,940,1437
2450.773,3.730469,-3.591302,4.333505,7.690176,-0.0298274,-0.02876214,-0.1789644,-117,949,1372
2450.777,3.734375,-3.840299,3.998317,7.76679,0.008522115,-0.00958738,-0.185356,-96,956,1424
2450.781,3.738281,-3.849876,3.983952,7.867347,0.007456851,0.006391587,-0.1864213,-100,895,1391
2450.785,3.742188,-3.883395,4.01747,7.8865,0.0330232,0.006391587,-0.165116,-103,918,1384
2450.789,3.746094,-3.830723,4.050989,7.862558,0.05113269,0,-0.1459412,-140,976,1412
2450.793,3.75,-3.768473,4.333505,7.757213,0.06924219,0.01384844,-0.1459412,-108,906,1399
2450.797,3.753906,-3.667917,4.582502,7.704541,0.09054748,0.02024002,-0.1438107,-85,917,1436
2450.801,3.757812,-3.653552,4.616021,7.699753,0.1107875,0.01704423,-0.1502023,-112,939,1397
2450.805,3.761719,-3.730166,4.572925,7.426814,0.1235707,0.02450108,-0.1544633,-121,925,1377
2450.809,3.765625,-3.744531,4.912902,7.43639,0.1278317,0.03728426,-0.1576591,-119,916,1394
2450.812,3.769531,-3.782839,4.860229,7.422025,0.128897,0.03834952,-0.1512675,-47,919,1416
2450.816,3.773438,-3.89776,4.67827,7.37893,0.1374191,0.04580637,-0.1544633,-101,941,1423
2450.82,3.777344,-3.983952,4.534618,7.412448,0.1395496,0.05006743,-0.1608549,-98,968,1377
2450.824,3.78125,-3.945644,4.841076,7.508216,0.1267665,0.0479369,-0.1438107,-87,944,1420
2450.828,3.785156,-3.859453,4.898537,7.259219,0.1033307,0.03728426,-0.1310275,-94,889,1413
2450.832,3.789062,-3.624821,5.33907,7.230489,0.1193096,0.04154531,-0.1555286,-111,930,1436
2450.836,3.792969,-3.481169,5.415684,7.364564,0.09374327,0.04367584,-0.1555286,-67,944,1404
2450.84,3.796875,-3.902549,4.247314,7.31668,0.1427454,0.1012001,-0.1885518,-99,928,1415
2450.844,3.800781,-3.854665,4.630386,7.838616,0.1161138,0.1001349,-0.1736381,-81,912,1426
2450.848,3.804688,-3.955221,4.52983,7.570466,0.1193096,0.07989483,-0.1374191,-123,896,1424
2450.852,3.808594,-3.797204,4.577714,7.532158,0.1331581,0.09161274,-0.144876,-126,920,1371
2450.855,3.8125,-3.711013,4.707,7.517793,0.1629855,0.112918,-0.1757686,-99,966,1406
2450.859,3.816406,-3.77805,4.520253,7.441179,0.1800297,0.1310275,-0.1842907,-70,922,1414
2450.863,3.820312,-3.931279,4.46758,7.489063,0.2024002,0.1470065,-0.1970739,-116,926,1446
2450.867,3.824219,-3.993528,4.654328,7.608773,0.2258361,0.1523328,-0.2194445,-88,955,1368
2450.871,3.828125,-3.835511,4.596867,7.795521,0.2705772,0.165116,-0.241815,-103,921,1437
2450.875,3.832031,-3.543418,4.395754,7.910442,0.2972088,0.1949434,-0.2460761,-84,928,1438
2450.879,3.835938,-3.217807,4.252102,8.159439,0.3217099,0.2311624,-0.2396845,-128,899,1419
2450.883,3.839844,-2.901772,4.141969,8.116344,0.3270362,0.2812298,-0.2247708,-159,912,1393
2450.887,3.84375,-3.131616,3.873818,7.915231,0.3621899,0.3387541,-0.2119876,-104,935,1413
2450.891,3.847656,-3.423708,3.892972,8.020576,0.4111921,0.4207795,-0.2269013,-81,919,1460
2450.895,3.851562,-3.715801,4.19943,8.078036,0.4495416,0.4676511,-0.2311624,-128,903,1436
2450.898,3.855469,-3.720589,4.357447,8.140286,0.4910869,0.5038701,-0.2183792,-123,922,1383
2450.902,3.859375,-3.552995,4.419696,8.173804,0.5305017,0.5379585,-0.2087918,-95,939,1376
2450.906,3.863281,-3.236961,4.410119,8.140286,0.5901565,0.5997439,-0.2183792,-106,966,1431
2450.91,3.867188,-3.117251,4.611232,7.97748,0.6253102,0.660464,-0.2279666,-123,910,1457
2450.914,3.871094,-3.198653,4.472369,7.987057,0.664725,0.7350325,-0.2354234,-115,941,1399
2450.918,3.875,-3.481169,4.477157,8.034941,0.7265103,0.7946873,-0.2503371,-107,932,1377
2450.922,3.878906,-3.576937,4.673482,8.00621,0.793622,0.8522115,-0.2684466,-141,938,1434
2450.926,3.882812,-3.576937,4.826711,7.867347,0.8490158,0.8884305,-0.2812298,-114,920,1432
2450.93,3.886719,-3.471592,4.975151,7.838616,0.9012137,0.9395632,-0.298274,-105,938,1412
2450.934,3.890625,-3.361459,5.310339,7.900865,0.9395632,0.9981528,-0.3206446,-105,958,1402
2450.938,3.894531,-3.131616,5.72693,7.781155,0.9566075,1.081243,-0.334493,-92,914,1433
2450.941,3.898438,-3.064578,6.14831,7.852981,0.9416938,1.151551,-0.3472762,-98,919,1431
2450.945,3.902344,-2.844312,6.919243,7.85777,0.8777779,1.232511,-0.3653857,-136,913,1419
2450.949,3.90625,-2.748544,7.187393,7.503428,0.757403,1.343298,-0.40267,-134,1000,1415
2450.953,3.910156,-2.892196,6.80911,7.340622,0.7073356,1.500958,-0.4878911,-80,919,1430
2450.957,3.914062,-3.112462,6.368576,7.426814,0.6785734,1.607484,-0.556068,-135,920,1428
2450.961,3.917969,-3.241749,6.023811,7.469909,0.6711166,1.696966,-0.6050702,-138,907,1438
2450.965,3.921875,-3.280056,6.033388,7.728483,0.6498113,1.801362,-0.6359629,-83,963,1407
2450.969,3.925781,-3.145981,6.119579,7.589619,0.6327671,1.962217,-0.6679208,-85,904,1442
2450.973,3.929688,-3.203442,6.253655,7.718906,0.6317018,2.083657,-0.7062703,-138,878,1408
2450.977,3.933594,-3.366248,6.215348,7.714118,0.5784386,2.210424,-0.7552725,-123,925,1414
2450.98,3.9375,-3.682282,6.244078,7.445967,0.5262406,2.344647,-0.8202536,-95,949,1424
2450.984,3.941406,-4.218583,6.406884,7.513005,0.4868258,2.498045,-0.9161274,-99,895,1442
2450.988,3.945312,-4.663905,6.574478,7.627926,0.495348,2.588593,-0.9843043,-116,902,1442
2450.992,3.949219,-4.735731,6.306327,7.350199,0.4442153,2.667422,-1.0887,-103,917,1427
2450.996,3.953125,-5.15711,6.780379,7.910442,0.3994742,2.747317,-1.222924,-111,931,1407
2451,3.957031,-4.697424,5.932832,7.28795,0.4367584,2.81869,-1.316667,-84,896,1444
2451.004,3.960938,-4.687847,5.463568,8.350975,0.551807,2.910302,-1.330515,-137,917,1433
2451.008,3.964844,-4.525041,5.315128,8.054094,0.4410195,3.005111,-1.353951,-80,947,1416
2451.012,3.96875,-4.194641,4.434061,6.914454,0.5251754,3.123355,-1.431715,-112,935,1432
2451.016,3.972656,-4.209007,5.554548,8.063671,0.6689861,3.251187,-1.510545,-105,894,1434
2451.02,3.976562,-4.520253,6.14831,7.690176,0.5443501,3.389671,-1.537177,-107,922,1446
2451.023,3.980469,-4.55856,5.923255,7.350199,0.5869607,3.592072,-1.574461,-120,926,1430
2451.027,3.984375,-4.381389,5.870582,7.067683,0.6913566,3.749731,-1.608549,-101,906,1434
2451.031,3.988281,-4.601656,5.851429,8.389283,0.7382283,3.90952,-1.643703,-83,937,1440
2451.035,3.992188,-3.878607,6.095637,6.924031,0.6572682,4.143879,-1.782187,-132,914,1457
2451.039,3.996094,-3.878607,3.916914,6.114791,0.9704559,4.339887,-1.903628,-109,908,1426
2451.043,4,-3.998317,3.672705,6.971915,1.161138,4.513525,-2.081527,-129,961,1411
2451.047,4.003906,-4.050989,5.224148,7.94875,1.211206,4.731905,-2.220011,-105,905,1450
2451.051,4.007812,-3.399766,6.181829,8.480262,1.353951,5.147358,-2.333994,-82,925,1445
2451.055,4.011719,-2.671929,5.856217,8.805874,1.498827,5.496764,-2.411759,-121,921,1420
2451.059,4.015625,-2.06859,5.889736,8.078036,1.624528,5.850432,-2.505502,-89,946,1452
2451.062,4.019531,-2.236184,6.617573,6.454768,1.721467,6.215818,-2.63866,-114,883,1410
2451.066,4.023438,-3.366248,7.580042,5.635951,1.895105,6.711166,-2.935869,-117,894,1446
2451.07,4.027344,-4.754884,7.699753,5.837064,2.15503,7.030745,-3.247991,-92,896,1465
2451.074,4.03125,-6.124368,7.73806,6.813898,2.490588,7.319432,-3.547331,-65,942,1425
2451.078,4.035156,-6.823475,7.661445,8.030152,2.843191,7.572965,-3.821104,-59,889,1444
2451.082,4.039062,-6.397307,10.07959,9.318233,3.262905,7.871239,-4.181163,-112,885,1506
2451.086,4.042969,-5.683835,13.88158,10.31901,3.444,8.074704,-4.428304,-81,951,1435
2451.09,4.046875,-5.827487,17.97088,10.37168,3.326821,8.322911,-4.748949,-53,913,1450
2451.094,4.050781,-5.588067,20.39381,8.432378,3.042395,8.613728,-5.185707,-76,919,1483
2451.098,4.054688,-11.23359,22.66351,6.263232,2.584332,8.850217,-5.715144,-107,883,1424
2451.102,4.058594,-20.65238,20.96363,5.00867,2.091114,8.963135,-6.038984,-67,932,1447
2451.105,4.0625,-33.15012,18.83279,8.135497,1.793905,8.847021,-6.14338,-108,911,1456
2451.109,4.066406,-43.86177,21.42332,4.343082,1.502023,8.240886,-6.051767,-60,936,1504
2451.113,4.070312,-46.7827,20.729,12.11945,1.295362,6.742059,-5.933523,-78,902,1496
2451.117,4.074219,-41.5394,18.8711,10.39084,1.282578,5.432849,-5.713013,-110,919,1458
2451.121,4.078125,-35.57305,14.83447,8.475474,1.336907,4.626443,-5.53831,-60,959,1474
2451.125,4.082031,-32.22595,11.45865,9.844957,1.34756,4.25147,-5.559615,-38,926,1469
2451.129,4.085938,-27.12152,17.57823,9.83538,1.353951,3.761449,-5.689577,-73,881,1471
2451.133,4.089844,-23.94681,23.63077,13.53203,1.365669,3.339604,-5.780125,-72,928,1492
2451.137,4.09375,-19.44571,27.96906,13.6278,1.406149,2.907107,-5.824866,-29,916,1459
2451.141,4.097656,-15.82088,28.73521,12.72758,1.236772,2.613094,-5.644836,-23,899,1475
2451.145,4.101562,-11.45386,25.7233,11.25275,0.86606,2.713229,-5.166533,-51,923,1499
2451.148,4.105469,-9.346963,22.18946,10.63983,0.7989483,2.894323,-4.679707,-12,941,1461
2451.152,4.109375,-8.418013,20.29804,10.74518,0.8809737,3.009372,-4.189685,-3,926,1482
2451.156,4.113281,-8.69574,20.86307,10.1993,1.047155,3.00085,-3.643204,-79,935,1492
2451.16,4.117188,-10.62547,21.09771,11.32457,1.172856,2.738795,-2.668487,-36,933,1509
2451.164,4.121094,-12.93827,21.0163,15.66287,1.314536,2.361691,-1.880192,-26,971,1463
2451.168,4.125,-14.07791,21.27009,18.97165,1.156877,1.884453,-1.251686,-25,960,1502
2451.172,4.128906,-14.11142,26.06328,28.09356,0.9715212,1.116397,-0.7456851,-37,931,1501
2451.176,4.132812,-9.433155,24.6938,28.30904,1.02585,-0.1001349,-0.1395496,-29,886,1486
2451.18,4.136719,-12.45464,28.27552,26.78633,2.283927,-1.864213,0.8596684,-43,958,1505
2451.184,4.140625,-9.050082,31.33052,18.40662,1.02798,-2.696184,0.7062703,-7,938,1488
2451.188,4.144531,1.000776,31.4646,10.53449,-0.01384844,-3.149987,0.4506069,-35,926,1495
2451.191,4.148438,10.25197,29.1087,5.123592,-0.3568636,-3.1404,0.7978831,-27,893,1495
2451.195,4.152344,13.3788,21.74893,6.315904,-0.7627293,-2.58007,1.785383,-33,952,1483
2451.199,4.15625,8.796297,14.64294,10.83616,-1.121723,-2.226403,2.042112,-39,954,1517
2451.203,4.160156,1.824382,11.31979,14.08748,-1.415736,-2.312689,1.770469,-33,924,1469
2451.207,4.164062,-2.60968,11.05642,14.98291,-1.639442,-2.792058,1.453021,-85,925,1485
2451.211,4.167969,-1.599327,11.76511,13.65653,-1.603223,-3.647465,1.478587,-78,963,1446
2451.215,4.171875,2.121263,11.50174,11.2719,-1.433846,-4.144944,1.703358,-32,976,1445
2451.219,4.175781,5.736507,9.983821,9.35654,-1.253816,-4.333496,1.875931,-39,923,1478
2451.223,4.179688,7.718906,7.97748,7.043741,-1.065264,-4.285559,1.936651,-31,928,1514
2451.227,4.183594,7.905654,5.918467,4.774038,-0.7968178,-4.105529,1.964348,-69,949,1444
2451.23,4.1875,7.31668,4.774038,4.414908,-0.608266,-4.013916,2.005893,11,982,1446
2451.234,4.191406,6.861782,3.605668,4.242525,-0.4314321,-3.954262,2.047438,-34,938,1505
2451.238,4.195312,6.315904,2.619257,3.96001,-0.2620551,-3.891411,2.039981,-75,909,1491
2451.242,4.199219,5.133168,2.480393,4.429273,-0.1118528,-3.804059,1.906823,-74,920,1425
2451.246,4.203125,3.983952,3.414132,4.76925,-0.09374327,-3.791276,1.7726,-36,919,1439
2451.25,4.207031,2.973598,5.042189,5.300762,-0.1257012,-3.84667,1.701227,-30,909,1467
2451.254,4.210938,2.193089,6.861782,5.774814,-0.1800297,-3.955327,1.726794,-5,893,1464
2451.258,4.214844,1.312023,8.896853,6.378153,-0.2663161,-4.108725,1.867409,-37,939,1455
2451.262,4.21875,0.6272808,9.868899,6.952762,-0.3206446,-4.21099,1.982457,-33,917,1456
2451.266,4.222656,-0.1580173,10.56801,7.398083,-0.3515373,-4.343083,2.09431,-37,942,1480
2451.27,4.226562,-0.9241618,10.72602,7.718906,-0.3898868,-4.498612,2.223207,-4,894,1480
2451.273,4.230469,-1.537077,10.23282,7.431602,-0.44315,-4.697816,2.433064,-53,931,1430
2451.277,4.234375,-1.513135,9.682152,6.847417,-0.4878911,-4.81393,2.599245,-45,912,1469
2451.281,4.238281,-1.192312,9.093178,6.378153,-0.5464807,-4.905543,2.748382,-60,915,1439
2451.285,4.242188,-0.9241618,8.489839,5.889736,-0.6072007,-4.965198,2.866627,-63,943,1469
2451.289,4.246094,-0.7661445,7.417237,5.118803,-0.664725,-4.968393,2.995524,-70,909,1416
2451.293,4.25,-0.8331822,6.569689,4.721366,-0.6572682,-4.938566,3.063701,-40,921,1407
2451.297,4.253906,-1.106121,5.985504,4.702212,-0.6253102,-4.905543,3.126551,-91,918,1482
2451.301,4.257812,-1.551443,5.559336,4.774038,-0.5837649,-4.878911,3.192598,-53,923,1447
2451.305,4.261719,-2.303222,5.6982,5.200206,-0.5379585,-4.841627,3.290602,-71,959,1426
2451.309,4.265625,-2.935291,6.143521,5.530606,-0.5038701,-4.835235,3.370497,-23,938,1475
2451.312,4.269531,-3.409343,6.497863,5.707777,-0.4442153,-4.828844,3.462109,-58,930,1404
2451.316,4.273438,-3.754108,6.938396,5.894524,-0.3717773,-4.812865,3.568636,-88,920,1438
2451.32,4.277344,-4.036624,7.249643,6.14831,-0.309992,-4.803277,3.673032,-72,966,1437
2451.324,4.28125,-4.276044,7.776367,6.459556,-0.2556635,-4.777711,3.790211,-72,944,1417
2451.328,4.285156,-4.400543,8.116344,6.574478,-0.2503371,-4.731905,3.864779,-45,916,1462
2451.332,4.289062,-4.625598,8.475474,6.737283,-0.2695119,-4.690359,3.937217,-41,940,1467
2451.336,4.292969,-4.893748,8.734048,7.062895,-0.2833603,-4.644553,4.012851,-70,898,1399
2451.34,4.296875,-5.348647,8.916007,7.503428,-0.3046656,-4.590224,4.10766,-55,929,1406
2451.344,4.300781,-5.741296,8.959103,7.795521,-0.3131877,-4.534831,4.171576,-48,910,1474
2451.348,4.304688,-6.272808,8.892065,8.212112,-0.314253,-4.473045,4.23123,-100,918,1418
2451.352,4.308594,-6.80911,9.083601,8.801085,-0.3067962,-4.420847,4.286624,-73,934,1429
2451.355,4.3125,-7.508216,9.552865,9.533711,-0.3046656,-4.372911,4.376106,-57,929,1421
2451.359,4.316406,-8.058883,10.04607,9.969456,-0.3014698,-4.362258,4.45174,-46,863,1444
2451.363,4.320312,-8.686164,10.43872,10.37647,-0.2854909,-4.339887,4.543353,-35,920,1482
2451.367,4.324219,-9.437943,10.64941,10.83616,-0.2556635,-4.324974,4.622182,-76,900,1428
2451.371,4.328125,-10.37647,10.63026,11.31021,-0.2024002,-4.31006,4.708469,-66,919,1413
2451.375,4.332031,-10.98939,10.70687,11.76032,-0.1715076,-4.300473,4.764928,-62,879,1426
2451.379,4.335938,-11.54484,10.62547,12.17691,-0.1608549,-4.296211,4.811799,-107,834,1452
2451.383,4.339844,-12.00453,10.86489,12.53604,-0.1480718,-4.290885,4.833105,-110,943,1409
2451.387,4.34375,-12.54083,11.30542,13.06755,-0.1267665,-4.280233,4.829909,-97,880,1389
2451.391,4.347656,-12.94305,11.71722,13.52724,-0.1033307,-4.270645,4.817126,-89,890,1401
2451.395,4.351562,-13.26388,12.13381,14.06833,-0.0809601,-4.248275,4.805408,-129,886,1395
2451.398,4.355469,-13.42189,12.67012,14.67167,-0.0777643,-4.224839,4.790494,-104,924,1351
2451.402,4.359375,-13.90552,13.53203,15.34204,-0.09800433,-4.189685,4.762797,-126,936,1402
2451.406,4.363281,-14.29817,14.38436,16.00284,-0.1427454,-4.141748,4.736166,-86,874,1427
2451.41,4.367188,-14.89672,15.24149,16.33803,-0.2002697,-4.08955,4.703142,-116,935,1397
2451.414,4.371094,-15.71554,16.17523,16.91264,-0.2684466,-4.032026,4.65201,-147,932,1409
2451.418,4.375,-17.31008,17.07066,17.36754,-0.3653857,-3.960653,4.55294,-134,919,1398
2451.422,4.378906,-18.69871,17.58781,17.72188,-0.4452805,-3.896737,4.475176,-126,927,1407
2451.426,4.382812,-20.20706,18.15284,18.03313,-0.5219796,-3.837082,4.398477,-131,913,1418
2451.43,4.386719,-22.03144,18.56464,17.81765,-0.5997439,-3.810451,4.328169,-113,931,1374
2451.434,4.390625,-24.75605,18.80406,17.36275,-0.6679208,-3.772101,4.215251,-136,946,1413
2451.438,4.394531,-26.82942,18.65562,16.91743,-0.6679208,-3.766775,4.121508,-121,909,1415
2451.441,4.398438,-28.57719,17.98524,15.96454,-0.6146576,-3.779558,4.036287,-156,922,1414
2451.445,4.402344,-29.86527,16.86476,14.94461,-0.5049353,-3.782754,3.953196,-124,960,1389
2451.449,4.40625,-30.64099,15.41866,13.66131,-0.3440804,-3.810451,3.881824,-99,995,1401
2451.453,4.410156,-30.90914,12.10508,11.89439,-0.06711166,-3.860518,3.776362,-84,954,1440
2451.457,4.414062,-31.17729,8.916007,10.22803,0.2258361,-3.832821,3.658118,-183,922,1417
2451.461,4.417969,-32.02005,6.890512,8.853758,0.5752428,-3.748666,3.518568,-121,993,1360
2451.465,4.421875,-33.44221,6.617573,7.671022,0.8213189,-3.700729,3.406716,-146,966,1407
2451.469,4.425781,-35.25701,7.31668,5.731719,1.053547,-3.64427,3.296993,-153,948,1433
2451.473,4.429688,-36.21948,7.532158,4.204218,1.249555,-3.573962,3.208576,-141,951,1405
2451.477,4.433594,-36.72705,6.852205,2.384625,1.38804,-3.503655,3.118029,-191,964,1388
2451.48,4.4375,-36.6648,5.72693,0.04309563,1.402953,-3.444,3.034938,-136,983,1400
2451.484,4.441406,-35.83641,5.018247,-3.983952,1.201618,-3.430151,2.908172,-131,981,1420
2451.488,4.445312,-35.52516,4.884171,-6.890512,0.8905611,-3.389671,2.750513,-123,965,1420
2451.492,4.449219,-36.65044,3.126827,-10.0748,0.5379585,-3.204315,2.465022,-159,983,1402
2451.496,4.453125,-38.85789,-0.9959879,-12.39718,0.334493,-2.897519,2.034655,-103,971,1366
2451.5,4.457031,-42.03739,-8.99741,-13.93904,0.4623248,-2.566222,1.343298,-154,972,1400
2451.504,4.460938,-43.22492,-14.69561,-15.18882,0.8671253,-2.47887,0.8799084,-139,985,1422
2451.508,4.464844,-42.79396,-18.7466,-16.34282,1.473261,-2.421346,0.5858954,-162,953,1428
2451.512,4.46875,-41.52503,-20.89659,-17.41063,2.125203,-2.261556,0.4655206,-177,989,1385
2451.516,4.472656,-40.67749,-21.02588,-18.01876,2.829342,-1.866343,0.4442153,-142,912,1384
2451.52,4.476562,-41.0031,-18.67956,-17.00362,3.108442,-1.463673,0.3749731,-176,973,1381
2451.523,4.480469,-41.56334,-14.10185,-15.96933,3.079679,-1.094027,0.1885518,-167,973,1348
2451.527,4.484375,-41.4149,-8.700529,-14.98291,2.78034,-0.7627293,-0.08202536,-154,973,1427
2451.531,4.488281,-39.69586,-2.681506,-13.38359,2.065548,-0.2769688,-0.4900216,-138,987,1412
2451.535,4.492188,-36.76057,-0.7086837,-12.01889,1.310275,0.1278317,-0.8735168,-170,941,1391
2451.539,4.496094,-33.30335,-0.344765,-10.65899,0.5507417,0.519849,-1.276187,-143,987,1380
2451.543,4.5,-30.66493,-0.7900865,-9.433155,-0.2226403,0.9448896,-1.618137,-150,989,1387
2451.547,4.503906,-29.13743,-1.92015,-7.220912,-1.076982,1.547829,-1.946238,-140,966,1384
2451.551,4.507812,-28.9459,-2.006341,-4.989516,-1.429585,1.906823,-2.108158,-162,975,1422
2451.555,4.511719,-28.99857,-1.513135,-3.136404,-1.580852,2.147573,-2.17527,-172,1002,1408
2451.559,4.515625,-28.80225,-0.5746084,-1.364695,-1.614941,2.320146,-2.15503,-133,969,1390
2451.562,4.519531,-27.91639,1.331176,0.7613561,-1.541438,2.488458,-2.018676,-142,919,1425
2451.566,4.523438,-26.81985,2.853888,2.331952,-1.417867,2.564091,-1.882322,-135,947,1416
2451.57,4.527344,-25.57965,4.553772,3.773262,-1.269795,2.614159,-1.718272,-146,974,1421
2451.574,4.53125,-22.12242,9.337386,6.708553,-1.12918,2.646117,-1.519067,-147,987,1386
2451.578,4.535156,11.01812,51.54716,41.20421,-2.190184,2.293514,2.177401,-133,971,1415
2451.582,4.539062,28.51494,34.87394,41.51546,-4.395281,3.731621,4.986503,-150,933,1417
2451.586,4.542969,55.83757,21.32276,30.4734,-2.363822,3.575027,4.119378,-153,999,1386
2451.59,4.546875,87.15373,17.81765,51.86798,2.420281,2.05596,0.8617989,-156,991,1402
2451.594,4.550781,115.8937,14.23113,10.31422,1.835451,1.499892,-3.319364,-128,919,1402
2451.598,4.554688,96.04579,-17.02277,-9.615114,-1.600027,6.396913,-9.191102,-163,933,1430
2451.602,4.558594,31.46939,-48.37724,-3.035848,-0.9235843,9.5469,-10.95838,-159,954,1388
2451.605,4.5625,-73.09977,-119.5999,-7.714118,-3.082875,9.066466,-9.60975,-124,954,1362
2451.609,4.566406,-149.2306,-93.51752,7.64708,-5.084507,9.618273,-6.052833,-118,942,1401
2451.613,4.570312,-123.5935,48.51131,23.16151,1.543568,4.181163,-0.1193096,-138,892,1408
2451.617,4.574219,-73.61691,56.47922,30.35848,1.170726,3.358779,0.9651296,-125,931,1418
2451.621,4.578125,-30.65057,25.33544,41.71657,-1.320928,3.946805,-1.881257,-150,917,1428
2451.625,4.582031,-5.391742,3.32794,41.62559,-0.1874865,2.833603,-4.051201,-97,887,1427
2451.629,4.585938,12.30141,-2.054225,46.79707,2.59818,0.2109224,-3.105246,-151,925,1421
2451.633,4.589844,2.743755,-6.473921,21.11207,-2.751578,0.1065264,-2.736664,-154,952,1407
2451.637,4.59375,-5.932832,1.120486,6.947973,-3.266101,0.2790993,-4.67225,-127,930,1445
2451.641,4.597656,-21.15517,49.16733,4.845864,-0.5400891,-1.382713,-5.27732,-112,912,1426
2451.645,4.601562,-33.75824,59.1703,-18.36832,-2.029329,-1.292166,-2.586462,-159,912,1451
2451.648,4.605469,-27.02096,42.92804,-9.514557,-1.650095,0.1118528,-0.9054748,-140,948,1405
2451.652,4.609375,-12.03805,20.08735,-3.035848,-1.845038,-0.108657,-0.7286409,-79,928,1428
2451.656,4.613281,2.873042,4.754884,-0.8714894,-1.925998,-0.03941478,-1.178182,-92,934,1417
2451.66,4.617188,11.68849,-5.204994,11.49217,-2.641856,0.4825648,-1.392301,-129,923,1414
2451.664,4.621094,7.110779,-6.722918,15.35162,-2.795254,0.3078614,-1.396562,-146,923,1382
2451.668,4.625,-3.744531,-7.560889,20.30283,-2.442651,-0.01704423,-1.643703,-110,943,1390
2451.672,4.628906,-14.18804,-11.73159,19.02433,-1.806688,-0.2769688,-1.994175,-135,911,1387
2451.676,4.632812,-16.45774,-1.651999,14.03002,-0.9619338,-0.7275756,-1.425324,-125,909,1418
2451.68,4.636719,-11.03248,9.868899,5.023035,-0.8000136,-0.8319715,-0.3419499,-107,952,1368
2451.684,4.640625,-5.070919,16.3524,0.8475474,-0.9342369,-0.4548679,0.2663161,-106,943,1394
2451.688,4.644531,-1.053449,16.3093,2.035071,-1.114267,0.01384844,0.07882957,-122,899,1408
2451.691,4.648438,0.3351882,9.054871,7.398083,-0.9736517,0.2162487,-0.5091964,-159,916,1405
2451.695,4.652344,-1.982399,0.5171476,10.21366,-0.8266452,0.2993393,-0.5816344,-130,895,1390
2451.699,4.65625,-4.683058,-6.80911,13.07234,-0.7595335,0.2790993,-0.4452805,-123,942,1400
2451.703,4.660156,-5.894524,-6.449979,13.1729,-0.5773733,0.02024002,-0.2972088,-117,934,1419
2451.707,4.664062,-5.750872,1.838747,8.858546,-0.3515373,-0.2045308,-0.1065264,-127,936,1442
2451.711,4.667969,-4.955997,7.666234,6.291962,-0.350472,-0.1480718,0.03621899,-146,929,1375
2451.715,4.671875,-3.892972,10.13705,5.473145,-0.386691,-0.08841695,0.0628506,-120,929,1399
2451.719,4.675781,-3.083732,9.342175,5.616797,-0.3920173,-0.01597897,-0.03089267,-89,929,1427
2451.723,4.679688,-2.786851,6.325481,7.603984,-0.3696468,0.06072007,-0.1747034,-141,893,1441
2451.727,4.683594,-3.56736,1.968034,8.633491,-0.3440804,0.04048005,-0.1960087,-111,923,1406
2451.73,4.6875,-4.496311,1.134852,9.222465,-0.2876214,-0.02024002,-0.1406149,-125,956,1413
2451.734,4.691406,-4.759673,2.446874,9.021352,-0.2460761,-0.07563377,-0.04154531,-113,886,1427
2451.738,4.695312,-4.012682,3.840299,8.556877,-0.1842907,-0.1075917,0.02237055,-111,922,1372
2451.742,4.699219,-3.08852,4.606444,7.97748,-0.108657,-0.08948221,-0.01065264,-100,938,1421
2451.746,4.703125,-2.561796,4.261679,7.915231,-0.06178534,-0.05006743,-0.06072007,-90,934,1379
2451.75,4.707031,-2.576161,3.773262,7.97748,-0.0330232,-0.02769688,-0.09374327,-113,938,1420
2451.754,4.710938,-3.1795,3.313575,8.020576,-0.008522115,-0.01597897,-0.1097222,-100,950,1415
2451.758,4.714844,-3.998317,3.428497,8.054094,0.03408846,0.003195793,-0.09374327,-142,961,1403
2451.762,4.71875,-4.132392,4.185065,7.910442,0.05432849,0.006391587,-0.04474111,-98,945,1404
2451.766,4.722656,-3.782839,4.67827,7.762002,0.07989483,0.01278317,0,-119,924,1428
2451.77,4.726562,-3.174711,4.659116,7.651869,0.1107875,0.04367584,0.002130529,-129,911,1443
2451.773,4.730469,-2.806004,4.223372,7.637503,0.1438107,0.08522115,-0.04048005,-139,903,1383
2451.777,4.734375,-3.026271,4.232949,7.580042,0.1544633,0.1097222,-0.05645902,-122,949,1398
2451.781,4.738281,-3.476381,4.52983,7.603984,0.1502023,0.1246359,-0.04474111,-118,880,1409
2451.785,4.742188,-3.864241,4.893748,7.52737,0.1502023,0.128897,-0.03089267,-141,865,1437
2451.789,4.746094,-3.916914,5.295974,7.52737,0.1533981,0.1299623,-0.03195793,-141,914,1424
2451.793,4.75,-3.720589,5.272032,7.508216,0.1619202,0.1438107,-0.04154531,-120,945,1390
2451.797,4.753906,-3.490746,5.023035,7.513005,0.1683118,0.1619202,-0.04687164,-142,900,1413
2451.801,4.757812,-3.380613,4.802769,7.599196,0.1640507,0.1725728,-0.04900216,-131,892,1384
2451.805,4.761719,-3.385401,5.027823,7.426814,0.1512675,0.1544633,-0.05539375,-104,944,1386
2451.809,4.765625,-3.524265,5.386954,7.426814,0.1427454,0.1427454,-0.07350325,-107,925,1366
2451.812,4.769531,-3.648763,5.592855,7.292738,0.1363538,0.1310275,-0.0958738,-119,908,1420
2451.816,4.773438,-3.744531,5.693412,7.388506,0.1320928,0.112918,-0.1267665,-130,889,1403
2451.82,4.777344,-3.677494,5.535394,7.067683,0.1225054,0.08628642,-0.165116,-110,944,1386
2451.824,4.78125,-3.763685,5.60722,7.010222,0.1075917,0.0809601,-0.1821602,-105,931,1385
2451.828,4.785156,-4.027047,5.549759,7.110779,0.08841695,0.06391587,-0.1874865,-122,911,1412
2451.832,4.789062,-4.261679,5.583278,7.264008,0.07989483,0.04367584,-0.1778992,-131,905,1432
2451.836,4.792969,-4.07972,5.24809,7.374141,0.06498113,0.01597897,-0.1683118,-117,924,1385
2451.84,4.796875,-3.739743,5.142745,7.153875,0.06391587,0.002130529,-0.181095,-81,939,1382
2451.844,4.800781,-3.533842,5.114015,7.326257,0.05432849,-0.00958738,-0.1938781,-93,875,1421
2451.848,4.804688,-3.610456,4.817134,7.321469,0.05965481,-0.01597897,-0.1906823,-90,937,1427
2451.852,4.808594,-3.864241,4.534618,7.580042,0.0958738,-0.002130529,-0.1725728,-108,954,1405
2451.855,4.8125,-4.065354,4.352659,7.800309,0.05219796,0,-0.1619202,-134,961,1406
2451.859,4.816406,-4.007894,4.070143,7.704541,0.07669904,-0.008522115,-0.1576591,-99,928,1439
2451.863,4.820312,-3.983952,3.950433,7.905654,0.1054612,-0.005326322,-0.1502023,-93,878,1417
2451.867,4.824219,-3.969586,3.62961,7.8865,0.1139833,0.01384844,-0.1267665,-134,958,1418
2451.871,4.828125,-3.89776,3.648763,7.891289,0.1267665,0.03195793,-0.09374327,-129,956,1400
2451.875,4.832031,-3.825934,4.132392,7.867347,0.1331581,0.03621899,-0.08202536,-96,940,1380
2451.879,4.835938,-3.62961,4.639963,7.881712,0.1416802,0.04261058,-0.0777643,-128,903,1402
2451.883,4.839844,-3.500323,5.023035,6.904878,0.1406149,0.05645902,-0.09374327,-85,936,1379
2451.887,4.84375,-3.371036,5.966351,7.819463,0.1757686,0.06178534,-0.1225054,-94,951,1383
2451.891,4.847656,-3.648763,4.850653,7.015011,0.1832255,0.1012001,-0.1363538,-127,935,1358
2451.895,4.851562,-3.797204,4.43885,7.651869,0.2322276,0.1320928,-0.1544633,-112,913,1414
2451.898,4.855469,-3.98874,4.328717,7.651869,0.2173139,0.1107875,-0.1523328,-112,938,1395
2451.902,4.859375,-3.950433,4.496311,7.335834,0.2119876,0.08841695,-0.1363538,-116,889,1401
2451.906,4.863281,-3.974375,4.807557,7.182605,0.2034655,0.1012001,-0.1406149,-91,883,1435
2451.91,4.867188,-3.921702,4.908113,7.220912,0.2002697,0.108657,-0.1427454,-104,920,1420
2451.914,4.871094,-3.98874,4.601656,7.302315,0.2151834,0.1033307,-0.1438107,-127,928,1424
2451.918,4.875,-4.127604,4.563348,7.220912,0.221575,0.108657,-0.1502023,-122,918,1417
2451.922,4.878906,-4.132392,4.821922,7.211335,0.2034655,0.1022654,-0.1480718,-114,885,1422
2451.926,4.882812,-4.012682,5.051766,7.182605,0.2002697,0.08948221,-0.1512675,-96,923,1425
2451.93,4.886719,-3.849876,5.15711,7.029376,0.2045308,0.09374327,-0.1619202,-80,940,1426
2451.934,4.890625,-3.821146,5.046977,7.220912,0.2109224,0.1107875,-0.1736381,-124,947,1393
2451.938,4.894531,-3.744531,4.965574,7.331045,0.1992044,0.1161138,-0.1747034,-73,917,1422
2451.941,4.898438,-3.572149,4.874595,7.350199,0.1917476,0.1267665,-0.1683118,-113,904,1436
2451.945,4.902344,-3.505111,5.018247,7.264008,0.1778992,0.144876,-0.1576591,-119,916,1406
2451.949,4.90625,-3.682282,4.644751,7.354988,0.169377,0.1864213,-0.1597897,-96,934,1385
2451.953,4.910156,-3.940856,4.405331,7.264008,0.2024002,0.2119876,-0.1800297,-73,919,1403
2451.957,4.914062,-4.060566,4.544195,7.551312,0.2151834,0.221575,-0.1906823,-126,916,1416
2451.961,4.917969,-4.036624,4.697424,7.484274,0.2109224,0.2279666,-0.181095,-128,966,1410
2451.965,4.921875,-3.792415,4.635174,7.603984,0.2471413,0.2460761,-0.1821602,-120,921,1369
2451.969,4.925781,-3.663129,4.501099,7.680599,0.2748382,0.2748382,-0.1906823,-117,933,1461
2451.973,4.929688,-3.596091,4.266467,7.685387,0.2897519,0.3089267,-0.2002697,-125,884,1446
2451.977,4.933594,-3.548207,4.036624,7.795521,0.3185141,0.3472762,-0.1928129,-126,949,1379
2451.98,4.9375,-3.56736,4.170699,7.824251,0.3483415,0.390952,-0.1768339,-132,910,1378
2451.984,4.941406,-3.591302,4.429273,7.781155,0.3675162,0.4293016,-0.1736381,-97,913,1456
2451.988,4.945312,-3.605668,4.659116,7.742848,0.3984089,0.4676511,-0.1725728,-121,943,1441
2451.992,4.949219,-3.600879,4.807557,7.771579,0.4303668,0.5049353,-0.1832255,-138,947,1410
2451.996,4.953125,-3.562572,4.879383,7.699753,0.4825648,0.551807,-0.2034655,-129,937,1411
2452,4.957031,-3.490746,5.104438,7.805097,0.5134575,0.5912218,-0.2173139,-77,892,1439
2452.004,4.960938,-3.433285,5.109226,7.709329,0.5475459,0.6338323,-0.2343582,-137,955,1437
2452.008,4.964844,-3.471592,5.123592,7.666234,0.5837649,0.6796387,-0.2503371,-120,954,1386
2452.012,4.96875,-3.29921,5.501875,7.661445,0.6093313,0.721184,-0.2748382,-122,927,1423
2452.016,4.972656,-2.576161,7.627926,7.632715,0.5091964,0.7808388,-0.2300971,-129,898,1424
2452.02,4.976562,-3.562572,3.840299,6.047753,0.4005394,0.9321064,-0.1587244,-100,907,1426
2452.023,4.980469,-4.204218,4.343082,7.852981,0.9800433,0.9246495,-0.4111921,-108,912,1394
2452.027,4.984375,-2.930503,10.60152,10.16578,0.628506,0.7605988,-0.5944176,-90,956,1388
2452.031,4.988281,-2.178724,7.354988,6.421249,0.2897519,1.070591,-0.3888215,-89,933,1435
2452.035,4.992188,-3.232172,3.002329,6.98628,0.5464807,1.362473,-0.4324974,-143,947,1463
2452.039,4.996094,-3.380613,5.023035,9.035717,0.5464807,1.340103,-0.5986786,-159,956,1422
2452.043,5,-2.695871,7.694964,8.207323,0.2684466,1.285774,-0.6135923,-115,948,1430
2452.047,5.003906,-2.868254,7.019799,6.92882,0.334493,1.535046,-0.5603291,-111,940,1405
2452.051,5.007812,-3.371036,6.066907,7.876923,0.390952,1.727859,-0.6551376,-156,902,1433
2452.055,5.011719,-3.375824,5.650316,8.010999,0.3323625,1.794971,-0.7648599,-104,882,1428
2452.059,5.015625,-3.313575,5.554548,7.776367,0.334493,1.857821,-0.7840346,-116,896,1410
2452.062,5.019531,-3.500323,5.473145,7.929596,0.3249057,2.038916,-0.7861652,-145,912,1410
2452.066,5.023438,-3.768473,5.415684,7.85777,0.2876214,2.180596,-0.8575379,-103,919,1457
2452.07,5.027344,-4.13718,5.679046,8.087613,0.2769688,2.29671,-0.9512811,-117,902,1418
2452.074,5.03125,-4.572925,5.990293,8.269573,0.2205097,2.402171,-1.049285,-110,887,1406
2452.078,5.035156,-5.023035,6.081272,8.140286,0.1661813,2.512959,-1.162203,-84,906,1421
2452.082,5.039062,-4.716577,5.439626,7.723695,0.2588593,2.57794,-1.222924,-98,890,1458
2452.086,5.042969,-4.429273,5.281609,8.020576,0.3323625,2.657835,-1.25062,-106,940,1428
2452.09,5.046875,-4.367024,5.075708,8.010999,0.3078614,2.75797,-1.290035,-86,886,1455
2452.094,5.050781,-4.376601,5.00867,7.671022,0.3600594,2.90178,-1.375256,-109,894,1417
2452.098,5.054688,-4.501099,5.501875,7.867347,0.4356932,2.990197,-1.451955,-128,940,1488
2452.102,5.058594,-4.759673,6.05733,8.082825,0.4261058,3.083941,-1.519067,-117,938,1407
2452.105,5.0625,-4.692635,6.483498,7.536947,0.3984089,3.197924,-1.588309,-92,911,1424
2452.109,5.066406,-4.802769,6.14831,7.627926,0.4697816,3.368366,-1.657551,-114,895,1432
2452.113,5.070312,-4.659116,6.038177,6.775591,0.4601942,3.501524,-1.707619,-100,919,1428
2452.117,5.074219,-4.860229,6.105214,7.833828,0.4687164,3.652792,-1.736381,-100,895,1412
2452.121,5.078125,-4.515464,6.440402,7.656657,0.4452805,3.80619,-1.857821,-97,860,1422
2452.125,5.082031,-3.993528,4.67827,7.235277,0.7318367,4.018177,-2.059156,-102,882,1472
2452.129,5.085938,-3.672705,5.090073,8.499416,0.84582,4.179032,-2.172074,-124,927,1436
2452.133,5.089844,-3.035848,6.081272,8.480262,0.8000136,4.422978,-2.223207,-96,905,1367
2452.137,5.09375,-2.499547,5.975927,8.408436,0.8692558,4.736166,-2.247708,-87,879,1476
2452.141,5.097656,-2.777274,6.363788,8.183381,0.9608685,5.187838,-2.345712,-42,888,1455
2452.145,5.101562,-3.184288,6.95755,6.775591,0.9598033,5.522331,-2.470348,-136,902,1446
2452.148,5.105469,-3.653552,7.426814,6.047753,1.017328,5.811017,-2.651443,-79,935,1429
2452.152,5.109375,-4.472369,7.105991,5.990293,1.226119,6.092247,-2.904976,-105,901,1428
2452.156,5.113281,-4.884171,6.856994,6.593631,1.48924,6.315953,-3.213903,-64,886,1447
2452.16,5.117188,-4.687847,5.588067,7.474698,1.939847,6.570551,-3.588876,-105,871,1467
2452.164,5.121094,-4.520253,5.477933,8.101978,2.313754,6.820888,-3.813647,-98,882,1452
2452.168,5.125,-4.505888,6.713341,9.083601,2.620551,7.121293,-4.023504,-94,887,1473
2452.172,5.128906,-4.209007,8.628703,8.791508,2.822951,7.473895,-4.275971,-78,869,1455
2452.176,5.132812,-4.539406,11.47301,9.825804,3.144661,8.003332,-4.622182,-103,939,1427
2452.18,5.136719,-5.741296,13.78102,9.433155,3.258644,8.392153,-4.897021,-84,909,1479
2452.184,5.140625,-9.979033,17.33402,8.317457,3.055178,8.738364,-5.35828,-86,925,1466
2452.188,5.144531,-14.37,19.15361,8.130709,2.805907,8.819324,-5.625661,-68,863,1517
2452.191,5.148438,-26.70971,20.25016,6.540959,2.149704,8.774583,-6.097574,-112,912,1462
2452.195,5.152344,-36.26258,21.50951,8.542512,1.905758,8.347412,-6.141249,-62,906,1444
2452.199,5.15625,-42.87057,21.34191,6.363788,1.605354,7.625163,-5.871738,-61,907,1457
2452.203,5.160156,-44.60877,17.24304,10.55364,1.444499,6.62488,-5.590508,-55,899,1477
2452.207,5.164062,-40.78762,12.50731,10.75475,1.513741,5.219796,-5.406217,-75,894,1509
2452.211,5.167969,-37.55545,9.14585,12.2631,1.528654,4.479437,-5.530853,-74,919,1469
2452.215,5.171875,-30.50692,11.73638,10.8601,1.557417,3.967045,-5.593704,-39,870,1483
2452.219,5.175781,-24.1958,18.13847,8.283938,1.901497,3.630421,-5.314604,-68,886,1535
2452.223,5.179688,-19.99158,24.83266,12.29183,2.006958,3.336408,-5.159076,-28,932,1500
2452.227,5.183594,-18.20551,23.98032,13.03403,1.951564,3.170227,-5.269863,-54,894,1428
2452.23,5.1875,-16.63491,24.84224,12.61744,1.55209,3.050917,-5.322061,-51,895,1471
2452.234,5.191406,-11.40598,23.70738,10.93192,1.363538,3.165966,-4.884237,-26,894,1477
2452.238,5.195312,-8.42759,20.33635,9.35654,1.528654,3.318299,-4.331365,-37,919,1487
