t_native_s,t_opt_s,ax,ay,az,gx,gy,gz,mx,my,mz
2450.207,-0.00153125,-10.12747,0.5889736,-0.6799533,0.08309063,0.01278317,-0.005326322,278,56,201
2450.211,0.002375,-10.09874,0.6081272,-0.6560113,0.08309063,0.01597897,-0.005326322,222,46,196
2450.215,0.00628125,-10.14663,0.5410896,-0.6655881,0.0809601,0.01278317,0,214,129,217
2450.219,0.0101875,-10.06044,0.5602432,-0.7038953,0.0809601,0.008522115,-0.001065264,220,132,139
2450.223,0.01409375,-10.0748,0.5650316,-0.6512229,0.0777643,0.01171791,0.001065264,272,36,136
2450.227,0.018,-10.09395,0.5506664,-0.593762,0.07456851,0.005326322,0,283,33,252
2450.23,0.02190625,-10.00297,0.5554548,-0.6129156,0.06924219,0.01171791,0,172,99,216
2450.234,0.0258125,-10.04128,0.5602432,-0.6081272,0.0660464,0.003195793,-0.002130529,196,107,186
2450.238,0.02971875,-10.04128,0.5746084,-0.6368576,0.06391587,0.00958738,0.002130529,269,78,129
2450.242,0.033625,-10.02692,0.56982,-0.5889736,0.05752428,0.005326322,0.003195793,275,29,240
2450.246,0.03753125,-10.0317,0.5985504,-0.6033388,0.05645902,0.01065264,0.003195793,212,53,222
2450.25,0.0414375,-10.02213,0.5793968,-0.6224924,0.05006743,0.01278317,0.004261058,226,108,122
2450.254,0.04534375,-10.0748,0.5889736,-0.6081272,0.04580637,0.005326322,0.004261058,270,115,154
2450.258,0.04925,-10.05086,0.6081272,-0.6272808,0.04261058,0.01278317,0.004261058,271,23,275
2450.262,0.05315625,-9.988609,0.6033388,-0.617704,0.04261058,0.003195793,0.005326322,182,28,194
2450.266,0.0570625,-10.03649,0.5985504,-0.5793968,0.03834952,0.01065264,0.006391587,212,88,211
2450.27,0.06096875,-10.01734,0.641646,-0.6129156,0.03834952,0.005326322,0.005326322,176,103,167
2450.273,0.064875,-10.06522,0.6847417,-0.617704,0.0330232,0.01065264,0.008522115,249,37,157
2450.277,0.06878125,-10.03649,0.641646,-0.617704,0.03195793,0.003195793,0.005326322,272,50,230
2450.281,0.0726875,-10.0748,0.7182605,-0.6272808,0.02876214,0.006391587,0.005326322,182,89,228
2450.285,0.07659375,-10.05565,0.6703765,-0.617704,0.02769688,0.005326322,0.003195793,165,117,160
2450.289,0.0805,-10.08917,0.6560113,-0.6224924,0.02769688,0.001065264,0.004261058,265,49,112
2450.293,0.08440625,-10.03649,0.6895301,-0.6033388,0.02769688,0.005326322,0.003195793,292,29,211
2450.297,0.0883125,-10.0748,0.6895301,-0.641646,0.02556635,0,0.005326322,210,51,272
2450.301,0.09221875,-10.12268,0.6799533,-0.617704,0.02556635,0.002130529,0.005326322,199,93,142
2450.305,0.096125,-10.13226,0.6751649,-0.6224924,0.02343582,-0.001065264,0.004261058,255,57,151
2450.309,0.1000313,-10.06044,0.6464344,-0.6272808,0.02130529,-0.001065264,0.002130529,279,37,242
2450.312,0.1039375,-10.07001,0.5985504,-0.6272808,0.02343582,-0.008522115,0.002130529,193,68,186
2450.316,0.1078438,-10.07001,0.5841852,-0.6033388,0.02450108,-0.002130529,0.002130529,190,115,249
2450.32,0.11175,-10.0317,0.5123592,-0.6368576,0.02876214,-0.003195793,0.003195793,263,120,173
2450.324,0.1156563,-10.07001,0.5985504,-0.5746084,0.02769688,-0.005326322,0.001065264,273,64,130
2450.328,0.1195625,-10.01255,0.5267244,-0.6081272,0.0298274,-0.002130529,0.003195793,282,30,228
2450.332,0.1234688,-10.06522,0.5506664,-0.6081272,0.02769688,-0.007456851,0.002130529,184,105,195
2450.336,0.127375,-10.01255,0.5410896,-0.6033388,0.02769688,-0.003195793,0.002130529,190,130,202
2450.34,0.1312813,-10.01734,0.5363012,-0.5985504,0.02450108,-0.007456851,0.004261058,279,35,132
2450.344,0.1351875,-10.00776,0.5506664,-0.5889736,0.02450108,-0.001065264,0.004261058,275,67,223
2450.348,0.1390938,-10.03649,0.5841852,-0.5506664,0.02237055,-0.004261058,0.005326322,230,33,242
2450.352,0.143,-9.969456,0.545878,-0.5793968,0.02450108,-0.004261058,0.004261058,206,124,158
2450.355,0.1469063,-9.988609,0.5793968,-0.521936,0.02024002,-0.001065264,0.005326322,294,109,134
2450.359,0.1508125,-9.979033,0.5650316,-0.617704,0.01917476,-0.002130529,0.005326322,264,55,188
2450.363,0.1547188,-10.00776,0.56982,-0.4836287,0.01704423,0.002130529,0.006391587,224,39,218
2450.367,0.158625,-9.998186,0.4932055,-0.6512229,0.02130529,-0.003195793,0.004261058,196,127,139
2450.371,0.1625313,-10.06522,0.5171476,-0.5171476,0.02024002,0.003195793,0.006391587,256,135,126
2450.375,0.1664375,-10.02213,0.5554548,-0.521936,0.02024002,0,0.007456851,277,44,179
2450.379,0.1703438,-10.00776,0.5315128,-0.5171476,0.02556635,0.001065264,0.008522115,281,82,179
2450.383,0.17425,-9.998186,0.4644751,-0.5171476,0.02769688,0.001065264,0.005326322,185,118,222
2450.387,0.1781563,-10.0317,0.5602432,-0.56982,0.03408846,-0.004261058,0.005326322,201,101,129
2450.391,0.1820625,-10.06044,0.6320692,-0.5650316,0.03408846,0.004261058,0.007456851,291,40,156
2450.395,0.1859688,-10.06044,0.6320692,-0.641646,0.03515373,-0.004261058,0.007456851,261,44,224
2450.398,0.189875,-10.03649,0.6655881,-0.5889736,0.03195793,0.003195793,0.006391587,203,107,207
2450.402,0.1937813,-10.10353,0.7038953,-0.6512229,0.03515373,-0.005326322,0.001065264,193,111,157
2450.406,0.1976875,-10.10353,0.7422025,-0.6655881,0.0330232,-0.003195793,0.005326322,246,82,134
2450.41,0.2015938,-10.0317,0.7661445,-0.6847417,0.03089267,-0.006391587,0.002130529,260,8,164
2450.414,0.2055,-10.04128,0.6799533,-0.6943185,0.03195793,-0.006391587,0.001065264,206,25,225
2450.418,0.2094063,-10.05565,0.7326257,-0.794875,0.0330232,-0.00958738,-0.003195793,208,89,157
2450.422,0.2133125,-10.04128,0.7422025,-0.7565677,0.03621899,-0.01171791,-0.005326322,271,71,164
2450.426,0.2172188,-10.05565,0.7422025,-0.6943185,0.03621899,-0.008522115,-0.005326322,278,55,135
2450.43,0.221125,-10.01734,0.7086837,-0.7374141,0.03515373,-0.01384844,-0.005326322,202,48,222
2450.434,0.2250313,-10.01255,0.7134721,-0.7422025,0.03515373,-0.01065264,-0.007456851,208,113,219
2450.438,0.2289375,-10.0317,0.6943185,-0.6895301,0.03621899,-0.0149137,-0.01065264,186,119,135
2450.441,0.2328438,-10.0317,0.7134721,-0.6703765,0.03408846,-0.0181095,-0.01171791,275,28,134
2450.445,0.23675,-9.998186,0.7565677,-0.7134721,0.0330232,-0.0181095,-0.01278317,264,42,230
2450.449,0.2406563,-10.02692,0.7374141,-0.7278373,0.0298274,-0.0181095,-0.01597897,201,93,235
2450.453,0.2445625,-10.07959,0.7278373,-0.6991069,0.02556635,-0.01917476,-0.01597897,203,127,152
2450.457,0.2484688,-10.02213,0.6799533,-0.7086837,0.02556635,-0.02663161,-0.01597897,251,32,154
2450.461,0.252375,-10.02692,0.6320692,-0.6703765,0.02130529,-0.0149137,-0.01704423,272,32,212
2450.465,0.2562813,-10.0748,0.6272808,-0.6703765,0.02024002,-0.02343582,-0.01704423,198,26,240
2450.469,0.2601875,-10.04128,0.617704,-0.6081272,0.01917476,-0.01917476,-0.0181095,209,114,147
2450.473,0.2640938,-9.959879,0.5793968,-0.6512229,0.01597897,-0.02130529,-0.01917476,266,94,139
2450.477,0.268,-9.983821,0.6560113,-0.6272808,0.0149137,-0.02024002,-0.01704423,254,12,245
2450.48,0.2719063,-10.00297,0.6129156,-0.6224924,0.01065264,-0.02024002,-0.01917476,194,41,244
2450.484,0.2758125,-9.993398,0.6655881,-0.593762,0.007456851,-0.01917476,-0.01917476,171,105,205
2450.488,0.2797188,-9.983821,0.6703765,-0.5841852,-0.002130529,-0.01171791,-0.01597897,268,92,137
2450.492,0.283625,-10.00297,0.6560113,-0.6320692,-0.008522115,-0.01917476,-0.02024002,246,19,140
2450.496,0.2875313,-9.955091,0.7038953,-0.5602432,-0.01384844,-0.01171791,-0.01704423,289,31,227
2450.5,0.2914375,-9.931148,0.6607997,-0.617704,-0.02130529,-0.01384844,-0.01917476,210,113,200
2450.504,0.2953438,-9.959879,0.7757213,-0.5267244,-0.0330232,-0.006391587,-0.01704423,193,121,145
2450.508,0.29925,-9.907206,0.7805097,-0.5793968,-0.04900216,-0.005326322,-0.01597897,291,26,160
2450.512,0.3031563,-9.916783,0.7661445,-0.4405331,-0.06498113,-0.005326322,-0.01384844,264,27,210
2450.516,0.3070625,-9.950302,0.7422025,-0.5075708,-0.07882957,0.001065264,-0.01278317,191,90,222
2450.52,0.3109688,-9.902418,0.7709329,-0.5315128,-0.09267801,0,-0.01384844,193,83,137
2450.523,0.314875,-9.935937,0.7517793,-0.56982,-0.1118528,0.00958738,-0.01278317,263,95,178
2450.527,0.3187813,-9.902418,0.7182605,-0.4932055,-0.1235707,0.005326322,-0.008522115,246,-4,226
2450.531,0.3226875,-9.89763,0.6943185,-0.5267244,-0.1342233,0.01704423,-0.008522115,210,27,228
2450.535,0.3265938,-9.89763,0.617704,-0.4357447,-0.1427454,0.01384844,-0.00958738,215,130,136
2450.539,0.3305,-9.92636,0.6368576,-0.4548983,-0.149137,0.02237055,-0.008522115,280,105,159
2450.543,0.3344063,-9.998186,0.6272808,-0.4213795,-0.1523328,0.02130529,-0.008522115,297,5,158
2450.547,0.3383125,-10.02692,0.6607997,-0.4357447,-0.1523328,0.02556635,-0.008522115,224,35,212
2450.551,0.3422188,-10.00297,0.6991069,-0.3878607,-0.1512675,0.02556635,-0.01065264,234,107,183
2450.555,0.346125,-10.09395,0.6368576,-0.344765,-0.144876,0.0298274,-0.00958738,220,115,144
2450.559,0.3500313,-10.16099,0.6703765,-0.3112462,-0.1406149,0.03834952,-0.01384844,310,34,154
2450.562,0.3539375,-10.18015,0.6991069,-0.2920926,-0.1352886,0.0298274,-0.01597897,292,31,215
2450.566,0.3578438,-10.16578,0.6224924,-0.2777274,-0.1331581,0.03941478,-0.01704423,205,78,211
2450.57,0.36175,-10.15142,0.6607997,-0.2202666,-0.1278317,0.03195793,-0.01917476,190,129,125
2450.574,0.3656563,-10.10353,0.6129156,-0.2202666,-0.1182444,0.04048005,-0.02237055,285,91,154
2450.578,0.3695625,-10.13226,0.6033388,-0.2585738,-0.1118528,0.04154531,-0.02343582,231,66,212
2450.582,0.3734688,-10.01255,0.56982,-0.2298434,-0.1043959,0.04154531,-0.02556635,192,40,258
2450.586,0.377375,-10.06044,0.4501099,-0.2825158,-0.09800433,0.04687164,-0.02769688,193,84,163
2450.59,0.3812813,-10.00776,0.4405331,-0.296881,-0.08735168,0.04367584,-0.02876214,296,100,135
2450.594,0.3851875,-10.00776,0.3591302,-0.320823,-0.07137272,0.05326322,-0.03195793,302,39,205
2450.598,0.3890938,-9.969456,0.344765,-0.2873042,-0.0628506,0.04900216,-0.03195793,192,16,231
2450.602,0.393,-10.01255,0.3974375,-0.296881,-0.05539375,0.05965481,-0.03195793,187,122,203
2450.605,0.3969063,-9.998186,0.4836287,-0.3495534,-0.04900216,0.05858954,-0.03408846,264,105,146
2450.609,0.4008125,-9.979033,0.4884171,-0.4118027,-0.04580637,0.06391587,-0.03089267,276,28,115
2450.613,0.4047188,-9.945514,0.5123592,-0.3543418,-0.0479369,0.07456851,-0.02769688,267,32,231
2450.617,0.408625,-9.964667,0.5027823,-0.4070143,-0.04687164,0.07350325,-0.02663161,213,108,237
2450.621,0.4125313,-9.974244,0.5746084,-0.4118027,-0.04580637,0.08841695,-0.02556635,200,69,150
2450.625,0.4164375,-10.00776,0.617704,-0.3256114,-0.04687164,0.08628642,-0.03195793,265,24,136
2450.629,0.4203438,-10.02692,0.6799533,-0.3399766,-0.0479369,0.09906959,-0.03941478,279,36,186
2450.633,0.42425,-10.02692,0.7086837,-0.2920926,-0.05006743,0.09480853,-0.04580637,185,29,204
2450.637,0.4281563,-9.945514,0.7086837,-0.2585738,-0.04580637,0.1075917,-0.04580637,171,106,152
2450.641,0.4320625,-9.840169,0.6751649,-0.2585738,-0.04367584,0.1054612,-0.05113269,266,107,155
2450.645,0.4359688,-9.945514,0.6607997,-0.2011129,-0.0330232,0.1118528,-0.05219796,256,55,214
2450.648,0.439875,-9.979033,0.6560113,-0.2011129,-0.02663161,0.1246359,-0.05432849,238,44,208
2450.652,0.4437813,-10.02692,0.6991069,-0.09576807,-0.0181095,0.1225054,-0.05432849,191,86,125
2450.656,0.4476875,-10.04128,0.7278373,-0.06224924,-0.01171791,0.1395496,-0.05645902,262,101,160
2450.66,0.4515938,-9.935937,0.7661445,0.01436521,-0.003195793,0.1384844,-0.05965481,281,41,129
2450.664,0.4555,-9.983821,0.7469909,0.04309563,0.004261058,0.1470065,-0.06178534,261,34,208
2450.668,0.4594063,-10.00776,0.6751649,0.08619126,0.01065264,0.1512675,-0.06391587,229,111,186
2450.672,0.4633125,-9.993398,0.6464344,0.1292869,0.0181095,0.1565939,-0.0628506,198,105,162
2450.676,0.4672188,-9.983821,0.593762,0.1628057,0.02769688,0.1725728,-0.0628506,297,31,105
2450.68,0.471125,-9.959879,0.521936,0.1149217,0.03408846,0.1683118,-0.06178534,275,21,205
2450.684,0.4750313,-9.998186,0.3974375,0.2011129,0.03834952,0.1874865,-0.05858954,191,70,212
2450.688,0.4789375,-9.940725,0.3064578,0.1819593,0.04474111,0.1885518,-0.05432849,219,136,136
2450.691,0.4828438,-9.916783,0.1723825,0.1963245,0.05006743,0.205596,-0.05219796,302,114,190
2450.695,0.48675,-9.931148,0.03830723,0.2537854,0.05113269,0.2194445,-0.04580637,301,44,221
2450.699,0.4906563,-9.844957,-0.02873042,0.272939,0.05219796,0.2343582,-0.04048005,207,61,221
2450.703,0.4945625,-9.868899,-0.08619126,0.320823,0.05432849,0.2514024,-0.03515373,174,128,192
2450.707,0.4984688,-9.849746,-0.2059013,0.3543418,0.05326322,0.2556635,-0.0298274,252,136,118
2450.711,0.502375,-9.840169,-0.2442086,0.344765,0.05219796,0.2854909,-0.0181095,272,24,158
2450.715,0.5062813,-9.854534,-0.2825158,0.3687071,0.04900216,0.2886867,-0.008522115,219,18,205
2450.719,0.5101875,-9.83538,-0.3782839,0.3830723,0.04900216,0.3153183,0.003195793,162,91,231
2450.723,0.5140938,-9.811438,-0.4596867,0.4596867,0.04367584,0.3249057,0.0181095,182,70,172
2450.727,0.518,-9.844957,-0.4213795,0.4979939,0.03941478,0.3472762,0.03195793,306,29,154
2450.73,0.5219063,-9.83538,-0.5363012,0.4788403,0.03408846,0.370712,0.05113269,291,-11,195
2450.734,0.5258125,-9.782708,-0.5027823,0.5267244,0.02876214,0.3813647,0.06924219,191,139,239
2450.738,0.5297188,-9.80665,-0.6081272,0.6033388,0.01917476,0.4143879,0.08948221,203,65,170
2450.742,0.533625,-9.744401,-0.6368576,0.6655881,0.01171791,0.42291,0.1097222,277,98,134
2450.746,0.5375313,-9.725247,-0.6655881,0.7517793,0.001065264,0.46339,0.1395496,274,10,228
2450.75,0.5414375,-9.720459,-0.7805097,0.8475474,-0.01278317,0.4804343,0.1597897,197,43,205
2450.754,0.5453438,-9.725247,-0.8140286,0.9289502,-0.02130529,0.5145227,0.1864213,234,128,146
2450.758,0.54925,-9.682152,-0.9337386,0.9816227,-0.03941478,0.5422196,0.2119876,272,89,136
2450.762,0.5531563,-9.59596,-1.072602,1.149217,-0.06178534,0.5837649,0.2524677,272,48,240
2450.766,0.5570625,-9.519346,-1.077391,1.335965,-0.08522115,0.6317018,0.2790993,219,41,215
2450.77,0.5609688,-9.47625,-1.130063,1.503559,-0.1075917,0.6657903,0.309992,162,112,201
2450.773,0.564875,-9.490615,-1.23062,1.642422,-0.1331581,0.7137272,0.3440804,312,108,112
2450.777,0.5687813,-9.409213,-1.235408,1.819593,-0.1523328,0.753142,0.3739078,228,49,151
2450.781,0.5726875,-9.399636,-1.331176,2.073379,-0.1821602,0.8181231,0.4250405,278,50,241
2450.785,0.5765938,-9.404424,-1.489193,2.173935,-0.1992044,0.86606,0.4676511,195,97,211
2450.789,0.5805,-9.342175,-1.604115,2.331952,-0.2194445,0.9161274,0.5091964,194,90,120
2450.793,0.5844063,-9.337386,-1.661576,2.485181,-0.2439456,0.9725864,0.5475459,249,44,163
2450.797,0.5883125,-9.284714,-1.513135,2.600103,-0.2833603,1.043959,0.5976133,301,52,250
2450.801,0.5922188,-9.303868,-1.460463,2.738967,-0.3185141,1.104679,0.6380934,170,5,205
2450.805,0.596125,-9.380482,-1.374272,2.829946,-0.3579289,1.162203,0.6860303,219,109,161
2450.809,0.6000313,-9.471462,-1.388637,2.887407,-0.3941478,1.218663,0.7275756,284,130,201
2450.812,0.6039375,-9.725247,-1.508347,2.916138,-0.4250405,1.296427,0.777643,264,77,231
2450.816,0.6078438,-10.10353,-1.781286,2.964022,-0.4154531,1.337972,0.809601,186,70,198
2450.82,0.61175,-10.26634,-2.035071,3.150769,-0.3728426,1.392301,0.8479505,195,119,233
2450.824,0.6156563,-10.3621,-2.140416,3.29921,-0.2897519,1.438107,0.8831042,247,129,145
2450.828,0.6195625,-10.27113,-1.996764,3.399766,-0.1981392,1.496697,0.9118664,255,63,157
2450.832,0.6234688,-10.04607,-1.115698,3.112462,-0.08415589,1.556351,0.9416938,244,58,221
2450.836,0.627375,-9.979033,-0.3974375,2.738967,-0.02556635,1.598962,0.9629991,180,101,242
2450.84,0.6312813,-10.11311,0.1197101,2.686294,0.01278317,1.640507,0.9843043,167,114,160
2450.844,0.6351875,-10.37647,0.7326257,2.269703,0.04048005,1.666074,1.004544,261,25,168
2450.848,0.6390938,-10.99896,1.532289,1.848324,0.06072007,1.698032,1.042894,285,50,194
2450.852,0.643,-11.38203,1.786074,1.628057,0.0628506,1.695901,1.076982,181,44,247
2450.855,0.6469063,-11.89439,2.006341,1.28808,0.05113269,1.701227,1.100418,194,122,149
2450.859,0.6508125,-12.73236,2.126051,1.01993,0.03941478,1.678857,1.101483,282,91,133
2450.863,0.6547188,-13.86243,2.1883,0.818817,0.02343582,1.662878,1.105744,225,70,234
2450.867,0.658625,-14.59984,2.078167,0.4261679,0.02876214,1.604288,1.124919,190,62,221
2450.871,0.6625313,-14.91588,1.944092,0.04309563,0.04580637,1.569135,1.153681,197,113,162
2450.875,0.6664375,-15.09784,1.833958,-0.3016694,0.05965481,1.516937,1.192031,264,156,167
2450.879,0.6703438,-15.04995,1.762132,-1.000776,0.05645902,1.484979,1.231446,249,65,151
2450.883,0.67425,-15.00686,1.398214,-1.862689,0.08309063,1.435976,1.290035,276,44,244
2450.887,0.6781563,-15.10741,1.144428,-1.958457,0.1502023,1.41041,1.334776,182,135,237
2450.891,0.6820625,-15.29895,1.316811,-1.853112,0.2439456,1.359277,1.360343,170,148,125
2450.895,0.6859688,-15.52879,1.61848,-1.70946,0.3526025,1.303884,1.380583,230,46,156
2450.898,0.689875,-15.49048,1.766921,-1.340753,0.4921522,1.212271,1.419997,240,46,260
2450.902,0.6937813,-15.27501,1.881843,-1.249773,0.5816344,1.172856,1.461543,198,143,220
2450.906,0.6976875,-14.94461,2.025495,-1.058237,0.6562029,1.092961,1.503088,180,156,140
2450.91,0.7015938,-14.46577,2.264915,-0.866701,0.7094661,1.038633,1.563808,251,132,157
2450.914,0.7055,-13.62301,2.810793,-0.8858546,0.7265103,0.9885654,1.61281,261,52,241
2450.918,0.7094063,-12.99094,4.041412,-0.6464344,0.6657903,0.9491506,1.643703,179,66,232
2450.922,0.7133125,-12.55519,4.989516,-0.4453215,0.5390238,0.9193232,1.634116,183,133,189
2450.926,0.7172188,-12.39239,5.612009,-0.2202666,0.3600594,0.9054748,1.601092,258,140,160
2450.93,0.721125,-12.27268,6.081272,-0.05267244,0.1342233,0.9044095,1.57233,272,56,140
2450.934,0.7250313,-12.3062,5.980716,0.08140286,-0.2151834,0.8788432,1.527589,197,74,233
2450.938,0.7289375,-12.45464,5.592855,0.05746084,-0.4751079,0.8255799,1.47113,201,106,260
2450.941,0.7328438,-12.67012,4.879383,0.02873042,-0.716923,0.7882957,1.398692,170,93,163
2450.945,0.73675,-12.81377,4.247314,0.06703765,-0.9246495,0.7350325,1.326254,236,69,152
2450.949,0.7406563,-12.8425,3.260903,0,-1.115332,0.6636597,1.252751,282,76,234
2450.953,0.7445625,-12.37323,2.94008,0.641646,-1.23038,0.5784386,1.203749,176,152,254
2450.957,0.7484688,-11.85609,2.260126,0.296881,-1.313471,0.4921522,1.160073,201,145,173
2450.961,0.752375,-11.38682,1.532289,0.3782839,-1.368865,0.4324974,1.120658,270,127,167
2450.965,0.7562813,-11.10431,1.374272,0.3687071,-1.402953,0.3632552,1.089766,236,71,229
2450.969,0.7601875,-10.87925,1.23062,0.4213795,-1.439172,0.2450108,1.019458,204,41,203
2450.973,0.7640938,-10.54885,1.374272,0.3639187,-1.460478,0.1555286,0.9651296,175,167,191
2450.977,0.768,-10.4052,1.623269,0.2585738,-1.486044,0.07456851,0.9129316,233,134,134
2450.98,0.7719063,-10.38126,1.517924,0.1771709,-1.521198,-0.01171791,0.8543421,238,38,261
2450.984,0.7758125,-10.21845,1.024718,0.05267244,-1.571265,-0.1374191,0.7787083,170,72,233
2450.988,0.7797188,-9.878476,0.6751649,0.1005565,-1.591505,-0.2588593,0.7062703,187,128,204
2450.992,0.783625,-9.71567,0.2059013,0.09097966,-1.589375,-0.3568636,0.6295713,176,126,169
2450.996,0.7875313,-9.466673,-0.3399766,0.1484405,-1.554221,-0.4559332,0.5571333,256,52,187
2451,0.7914375,-9.32781,-1.13964,0.225055,-1.454086,-0.5944176,0.4516721,217,88,263
2451.004,0.7953438,-9.155427,-1.728614,0.2537854,-1.340103,-0.7094661,0.3696468,156,132,249
2451.008,0.79925,-8.925584,-2.269703,0.3351882,-1.204814,-0.8106662,0.2876214,150,172,186
2451.012,0.8031563,-8.753201,-2.691083,0.4261679,-1.049285,-0.9171927,0.2077266,223,120,178
2451.016,0.8070625,-8.590396,-2.954445,0.4692635,-0.8767126,-0.994957,0.1235707,255,55,220
2451.02,0.8109688,-8.580819,-3.145981,0.5841852,-0.6178534,-1.114267,0.00958738,187,50,256
2451.023,0.814875,-8.566454,-3.102885,0.5123592,-0.4122573,-1.200553,-0.07137272,151,174,184
2451.027,0.8187813,-8.580819,-2.657564,0.2537854,-0.1970739,-1.287905,-0.1597897,223,179,173
2451.031,0.8226875,-8.628703,-2.011129,0.06703765,0.001065264,-1.385909,-0.2545982,232,92,229
2451.035,0.8265938,-8.901642,-1.163582,0.01436521,0.2109224,-1.474326,-0.3749731,179,86,248
2451.039,0.8305,-9.279926,-0.6272808,0.08619126,0.3259709,-1.545699,-0.46339,188,157,254
2451.043,0.8344063,-9.701305,-0.3256114,0.1628057,0.4079963,-1.614941,-0.5454154,221,152,164
2451.047,0.8383125,-9.998186,-0.03351882,0.2298434,0.4772385,-1.688444,-0.6157228,210,84,140
2451.051,0.8422188,-10.18015,0.1388637,0.225055,0.5283712,-1.755556,-0.6711166,248,35,217
2451.055,0.846125,-10.38126,0.3974375,0.2106897,0.5816344,-1.829059,-0.7329019,191,118,264
2451.059,0.8500313,-10.49618,0.521936,0.2106897,0.6040049,-1.880192,-0.7744472,159,142,173
2451.062,0.8539375,-10.52491,0.6560113,0.1915361,0.6114618,-1.927063,-0.8234494,256,51,144
2451.066,0.8578438,-10.59195,0.6655881,0.1675941,0.6114618,-1.987783,-0.8735168,280,56,213
2451.07,0.86175,-10.75475,0.6799533,0.1532289,0.5986786,-2.034655,-0.9438243,127,79,237
2451.074,0.8656563,-10.89841,0.6991069,0.08619126,0.5869607,-2.091114,-1.000283,168,111,187
2451.078,0.8695625,-10.93192,0.8714894,0.1053449,0.5645902,-2.122007,-1.04822,195,155,171
2451.082,0.8734688,-11.01333,0.9576807,0.1149217,0.5411543,-2.166748,-1.089766,241,42,231
2451.086,0.877375,-10.92235,0.9720459,-0.02873042,0.5028048,-2.201902,-1.136637,182,50,231
2451.09,0.8812813,-10.93671,0.9672575,-0.1197101,0.4751079,-2.245577,-1.16966,203,126,207
2451.094,0.8851875,-10.92714,0.9193734,-0.2298434,0.44315,-2.281796,-1.203749,271,109,181
2451.098,0.8890938,-10.88883,0.8810662,-0.3495534,0.406931,-2.307363,-1.236772,275,74,177
2451.102,0.893,-10.84095,0.7565677,-0.4261679,0.370712,-2.322276,-1.26873,191,67,238
2451.105,0.8969063,-10.90798,0.641646,-0.56982,0.3259709,-2.3553,-1.30921,152,114,228
2451.109,0.9008125,-10.91277,0.5889736,-0.6464344,0.2897519,-2.363822,-1.342233,194,145,148
2451.113,0.9047188,-10.88883,0.4070143,-0.7900865,0.2663161,-2.385127,-1.374191,257,57,137
2451.117,0.908625,-10.89362,0.3687071,-0.9002198,0.2471413,-2.405367,-1.40828,240,30,216
2451.121,0.9125313,-10.78348,0.2681506,-1.029507,0.2226403,-2.419216,-1.447694,196,128,239
2451.125,0.9164375,-10.64941,0.248997,-1.182736,0.2066613,-2.423477,-1.47113,199,124,161
2451.129,0.9203438,-10.52012,0.4165911,-1.268927,0.1896171,-2.419216,-1.493501,263,152,185
2451.133,0.92425,-10.52012,0.5554548,-1.359907,0.1747034,-2.404302,-1.519067,256,36,255
2451.137,0.9281563,-10.62547,0.7661445,-1.374272,0.1502023,-2.402171,-1.547829,133,42,225
2451.141,0.9320625,-10.69729,0.8379706,-1.355118,0.1267665,-2.390453,-1.564873,178,119,176
2451.145,0.9359688,-10.80264,0.8044518,-1.340753,0.09693906,-2.368083,-1.573396,285,124,139
2451.148,0.939875,-10.75475,0.818817,-1.28808,0.06498113,-2.360626,-1.578722,249,42,234
2451.152,0.9437813,-10.64462,0.9768343,-1.25935,0.02343582,-2.336125,-1.585113,194,14,233
2451.156,0.9476875,-10.56322,1.173159,-1.086968,-0.03089267,-2.300971,-1.588309,190,108,219
2451.16,0.9515938,-10.48181,1.283292,-1.01993,-0.08202536,-2.275405,-1.589375,271,90,160
2451.164,0.9555,-10.41957,1.407791,-0.8762778,-0.1406149,-2.240251,-1.59044,261,8,154
2451.168,0.9594063,-10.35253,1.441309,-0.8619126,-0.2034655,-2.209358,-1.589375,251,4,252
2451.172,0.9633125,-10.37168,1.455675,-0.7709329,-0.2908172,-2.169944,-1.587244,200,138,206
2451.176,0.9672188,-10.36689,1.407791,-0.6655881,-0.3557983,-2.130529,-1.588309,189,76,142
2451.18,0.971125,-10.37647,1.278504,-0.6655881,-0.4218447,-2.093245,-1.589375,251,41,159
2451.184,0.9750313,-10.34295,1.144428,-0.5985504,-0.4804343,-2.064482,-1.586179,272,38,209
2451.188,0.9789375,-10.28549,1.029507,-0.5123592,-0.5336975,-2.020807,-1.577657,178,31,222
2451.191,0.9828438,-10.30464,0.9528923,-0.4070143,-0.5976133,-1.971804,-1.569135,218,83,139
2451.195,0.98675,-10.22803,0.9241618,-0.3687071,-0.6402239,-1.936651,-1.562743,290,93,165
2451.199,0.9906563,-10.17057,0.8283938,-0.3112462,-0.6796387,-1.901497,-1.554221,248,7,232
2451.203,0.9945625,-10.1179,0.6224924,-0.2920926,-0.7243798,-1.845038,-1.541438,204,117,213
2451.207,0.9984688,-10.0748,0.56982,-0.2920926,-0.7499462,-1.807754,-1.530785,208,126,215
2451.211,1.002375,-9.940725,0.4501099,-0.2346318,-0.7744472,-1.755556,-1.519067,296,90,133
2451.215,1.006281,-9.868899,0.4357447,-0.2873042,-0.7861652,-1.728924,-1.507349,319,23,135
2451.219,1.010188,-9.830592,0.4979939,-0.3256114,-0.7978831,-1.685248,-1.494566,264,14,243
2451.223,1.014094,-9.605537,0.5650316,-0.4453215,-0.8117315,-1.631985,-1.476457,232,101,202
2451.227,1.018,-9.466673,0.5506664,-0.4405331,-0.8234494,-1.578722,-1.460478,193,79,134
2451.23,1.021906,-9.380482,0.5889736,-0.4788403,-0.8266452,-1.544633,-1.442368,288,31,145
2451.234,1.025813,-9.227253,0.56982,-0.5123592,-0.8330368,-1.503088,-1.423193,296,13,231
2451.238,1.029719,-9.112332,0.6703765,-0.4548983,-0.8362326,-1.457282,-1.397627,219,16,224
2451.242,1.033625,-9.016563,0.7565677,-0.5602432,-0.8404936,-1.399757,-1.3678,221,66,144
2451.246,1.037531,-8.872911,0.8762778,-0.641646,-0.8415589,-1.343298,-1.343298,272,100,148
2451.25,1.041438,-8.75799,0.9337386,-0.7278373,-0.8479505,-1.302818,-1.320928,268,8,224
2451.254,1.045344,-8.633491,0.9481039,-0.8092402,-0.850081,-1.252751,-1.301753,222,-12,211
2451.258,1.04925,-8.499416,1.024718,-0.9193734,-0.8564726,-1.193096,-1.278317,219,84,133
2451.262,1.053156,-8.408436,1.096544,-0.9289502,-0.8628642,-1.140898,-1.262338,269,85,111
2451.266,1.057063,-8.355764,1.278504,-1.043872,-0.870321,-1.095092,-1.242098,286,10,174
2451.27,1.060969,-8.192958,1.455675,-1.096544,-0.8831042,-1.034372,-1.219728,209,1,210
2451.273,1.064875,-8.092402,1.776498,-1.101333,-0.9054748,-0.9566075,-1.182444,238,56,234
2451.277,1.068781,-7.929596,1.94888,-1.177947,-0.9214537,-0.90654,-1.148355,262,78,121
2451.281,1.072688,-7.785944,2.078167,-1.240196,-0.9416938,-0.8436894,-1.113201,319,-30,145
2451.285,1.076594,-7.675811,2.202666,-1.307234,-0.9619338,-0.7765778,-1.071656,317,-14,198
2451.289,1.0805,-7.417237,2.269703,-1.426944,-0.9779128,-0.7094661,-1.019458,199,71,206
2451.293,1.084406,-7.201759,2.30801,-1.580173,-0.9960222,-0.6157228,-0.9470201,241,94,134
2451.297,1.088313,-7.000646,2.389413,-1.666364,-1.001349,-0.5528722,-0.8841695,265,72,131
2451.301,1.092219,-6.871359,2.566584,-1.747767,-1.003479,-0.4687164,-0.8149273,283,-10,208
2451.305,1.096125,-6.847417,2.743755,-1.824382,-1.000283,-0.3888215,-0.7403588,259,-7,215
2451.309,1.100031,-6.813898,3.040636,-2.015918,-0.9885654,-0.2790993,-0.6348976,243,42,117
2451.312,1.103938,-6.833052,3.332729,-2.126051,-0.9725864,-0.1960087,-0.5550028,303,87,123
2451.316,1.107844,-6.880936,3.581726,-2.245761,-0.942759,-0.1182444,-0.4729774,285,12,138
2451.32,1.11175,-7.058106,3.768473,-2.389413,-0.902279,-0.03834952,-0.3898868,224,47,179
2451.324,1.115656,-7.105991,3.974375,-2.595315,-0.8255799,0.07137272,-0.309992,240,78,196
2451.328,1.119563,-7.16824,4.161122,-2.75812,-0.7424893,0.1331581,-0.1992044,222,49,144
2451.332,1.123469,-7.153875,4.19943,-2.916138,-0.644485,0.2130529,-0.1043959,336,21,140
2451.336,1.127375,-7.187393,4.371812,-3.083732,-0.5209143,0.2695119,-0.007456851,303,-1,169
2451.34,1.131281,-7.297527,4.582502,-3.040636,-0.390952,0.3430151,0.09693906,226,57,192
2451.344,1.135188,-7.311892,5.118803,-3.050213,-0.1960087,0.4250405,0.2482066,242,44,121
2451.348,1.139094,-7.19697,5.57849,-3.083732,-0.05006743,0.4964132,0.3696468,286,77,140
2451.352,1.143,-7.072472,6.172252,-3.150769,0.09374327,0.5592638,0.4910869,294,10,209
2451.355,1.146906,-6.943185,7.04853,-3.136404,0.2311624,0.6167881,0.6167881,245,61,235
2451.359,1.150813,-6.727707,8.293515,-3.409343,0.3792341,0.700944,0.773382,256,89,172
2451.363,1.154719,-6.617573,9.08839,-3.811569,0.4665858,0.7467504,0.8948221,311,95,164
2451.367,1.158625,-6.464344,9.624691,-3.217807,0.531567,0.7989483,1.012001,299,21,207
2451.371,1.162531,-6.670246,9.730036,-3.725378,0.5486112,0.8436894,1.12705,235,33,238
2451.375,1.166438,-7.694964,8.939949,-3.069367,0.515588,0.8841695,1.238903,239,81,193
2451.379,1.170344,-9.054871,5.755661,-1.637634,0.386691,1.001349,1.409345,229,60,134
2451.383,1.17425,-11.33415,1.11091,-0.1628057,0.1331581,1.064199,1.507349,333,34,150
2451.387,1.178156,-14.57111,-5.137957,5.386954,-0.2854909,1.185639,1.542503,301,57,225
2451.391,1.182063,-19.99637,-12.93348,10.59195,-0.7584683,1.251686,1.483913,205,95,171
2451.395,1.185969,-29.66895,-20.20706,9.394847,-1.10894,1.342233,1.206945,206,118,153
2451.398,1.189875,-34.3137,-16.65407,4.568137,-1.295362,1.456216,0.8884305,289,25,147
2451.402,1.193781,-31.52685,-8.719682,0.9241618,-1.690575,1.510545,0.6711166,289,16,239
2451.406,1.197688,-24.27242,1.364695,0.8283938,-2.009089,1.558482,0.5763081,257,6,209
2451.41,1.201594,-11.41555,11.29584,0.4453215,-1.71401,1.427454,0.4506069,222,73,127
2451.414,1.2055,-6.689399,11.79384,-2.796428,-1.02798,1.323058,0.370712,277,115,156
2451.418,1.209406,-4.759673,6.607997,-5.176264,-0.6306365,1.28897,0.6135923,282,7,205
2451.422,1.213313,-4.572925,0.1005565,-5.612009,-0.459129,1.276187,1.075917,217,26,206
2451.426,1.217219,-5.947197,-3.825934,-4.903325,-0.3696468,1.328385,1.492435,214,66,224
2451.43,1.221125,-9.35654,-4.189853,-3.940856,-0.4538026,1.397627,1.826929,298,102,121
2451.434,1.225031,-11.48259,-4.716577,-4.074931,-0.5400891,1.391235,1.990979,299,27,134
2451.438,1.228938,-12.36366,-6.062119,-5.24809,-0.5816344,1.332646,2.05383,286,18,215
2451.441,1.232844,-11.71722,-3.356671,-6.191405,-0.5826996,1.269795,1.997371,217,86,218
2451.445,1.23675,-10.82179,1.403002,-7.450756,-0.6711166,1.182444,1.814145,253,99,167
2451.449,1.240656,-10.21366,1.04866,-7.924807,-0.7275756,1.095092,1.709749,239,14,152
2451.453,1.244563,-9.619902,-0.9193734,-7.953538,-0.7339672,1.014132,1.621332,284,21,192
2451.457,1.248469,-8.983045,-1.795651,-6.732495,-0.7392935,0.9875001,1.530785,225,96,239
2451.461,1.252375,-8.561665,5.118803,-2.303222,-0.6956177,1.045024,1.447694,260,78,122
2451.465,1.256281,-10.68772,9.481039,-1.340753,-0.6753777,1.056742,1.495631,276,124,136
2451.469,1.260188,-13.13938,9.481039,-2.413355,-0.6040049,1.012001,1.582983,293,16,219
2451.473,1.264094,-14.15931,8.360552,-3.854665,-0.5273059,0.9512811,1.649029,209,45,229
2451.477,1.268,-13.16811,7.714118,-3.572149,-0.5305017,0.8511463,1.701227,188,75,152
2451.48,1.271906,-11.04206,7.97748,-2.193089,-0.5454154,0.753142,1.750229,281,85,172
2451.484,1.275813,-10.6925,7.354988,-1.264138,-0.5134575,0.6796387,1.753425,281,42,144
2451.488,1.279719,-10.54885,5.3678,-1.747767,-0.4580637,0.6189186,1.743838,222,40,195
2451.492,1.283625,-9.80665,3.011906,-3.002329,-0.3472762,0.5411543,1.715076,185,87,209
2451.496,1.287531,-8.489839,1.125275,-4.247314,-0.09161274,0.5006743,1.591505,228,107,198
2451.5,1.291438,-7.953538,1.326388,-3.98874,0.1438107,0.4687164,1.411475,254,39,169
2451.504,1.295344,-8.159439,2.097321,-3.375824,0.3802994,0.4676511,1.231446,252,-2,213
2451.508,1.29925,-8.781932,2.37026,-2.815581,0.6093313,0.459129,1.095092,218,83,213
2451.512,1.303156,-9.332598,2.585738,-1.436521,0.8873653,0.4410195,0.9960222,177,111,148
2451.516,1.307063,-9.643844,3.682282,-0.07661445,1.053547,0.4335626,0.902279,287,70,160
2451.52,1.310969,-9.821015,4.745308,0.6129156,1.168595,0.4143879,0.8596684,281,42,233
2451.523,1.314875,-9.739612,5.659893,0.7374141,1.229315,0.4079963,0.8372978,187,11,229
2451.527,1.318781,-9.323021,6.473921,0.3782839,1.225054,0.4154531,0.8383631,192,75,154
2451.531,1.322688,-8.963891,7.350199,0.05267244,1.111071,0.4346279,0.8522115,262,90,181
2451.535,1.326594,-9.021352,7.752425,-0.1053449,0.9480853,0.459129,0.8554073,245,19,170
2451.539,1.3305,-9.418789,7.872135,-0.09097966,0.7488809,0.4783037,0.8426242,194,29,222
2451.543,1.334406,-9.787496,7.752425,-0.03830723,0.5422196,0.4814995,0.8223841,214,108,172
2451.547,1.338313,-10.15142,7.335834,0.009576807,0.2908172,0.4857606,0.7723167,202,77,130
2451.551,1.342219,-10.17057,6.919243,-0.2059013,0.1374191,0.4580637,0.7275756,236,54,133
2451.555,1.346125,-10.07001,6.459556,-0.4836287,0.01171791,0.4538026,0.6838998,308,34,248
2451.559,1.350031,-9.864111,5.971139,-0.6607997,-0.08309063,0.4282363,0.6370281,190,111,227
2451.562,1.353938,-9.586383,5.396531,-0.7900865,-0.1555286,0.4282363,0.5997439,218,124,162
2451.566,1.357844,-9.481039,4.764461,-0.8379706,-0.2482066,0.4250405,0.5613944,269,87,162
2451.57,1.36175,-9.591172,4.453215,-0.8092402,-0.3046656,0.4133226,0.5400891,272,18,217
2451.574,1.365656,-9.696517,4.194641,-0.8619126,-0.3515373,0.427171,0.5273059,187,41,161
2451.578,1.369563,-9.921572,4.041412,-0.9002198,-0.3813647,0.4090615,0.5091964,190,149,175
2451.582,1.373469,-10.04607,3.797204,-0.8523358,-0.3888215,0.4048005,0.4932174,252,135,163
2451.586,1.377375,-10.1562,3.552995,-0.8714894,-0.3717773,0.3771036,0.4846953,240,26,228
2451.59,1.381281,-10.17057,3.241749,-0.7422025,-0.3430151,0.3621899,0.4729774,231,28,228
2451.594,1.385188,-10.25676,2.829946,-0.6129156,-0.2961435,0.3334278,0.459129,182,143,227
2451.598,1.389094,-10.23761,2.322376,-0.4357447,-0.1928129,0.2929477,0.4335626,283,69,152
2451.602,1.393,-10.1179,1.94888,-0.4453215,-0.09800433,0.273773,0.406931,256,55,166
2451.605,1.396906,-9.89763,1.94888,-0.5027823,0.008522115,0.2471413,0.3728426,273,25,215
2451.609,1.400813,-9.643844,2.063802,-0.4788403,0.1075917,0.2258361,0.3366236,204,70,246
2451.613,1.404719,-9.524134,2.269703,-0.5602432,0.1896171,0.2151834,0.3025351,219,84,179
2451.617,1.408625,-9.437943,2.470816,-0.5363012,0.2876214,0.1938781,0.2609898,240,51,158
2451.621,1.412531,-9.409213,2.547431,-0.521936,0.3419499,0.1864213,0.2311624,271,39,212
2451.625,1.416438,-9.59596,2.724601,-0.4740519,0.3813647,0.1789644,0.2087918,182,28,213
2451.629,1.420344,-9.739612,2.896984,-0.4644751,0.4058658,0.1704423,0.1874865,191,87,120
2451.633,1.42425,-9.859322,3.184288,-0.3399766,0.4079963,0.1778992,0.1629855,284,106,149
2451.637,1.428156,-10.00776,3.203442,-0.296881,0.3941478,0.1565939,0.1523328,260,20,228
2451.641,1.432063,-10.02213,3.169923,-0.2106897,0.3717773,0.169377,0.1470065,179,53,219
2451.645,1.435969,-10.05565,3.102885,-0.3160346,0.350472,0.149137,0.1502023,205,124,225
2451.648,1.439875,-10.11311,2.72939,-0.3878607,0.3110572,0.1544633,0.1587244,275,88,183
2451.652,1.443781,-10.0748,2.470816,-0.3782839,0.2886867,0.1395496,0.165116,280,10,155
2451.656,1.447688,-10.13226,2.145205,-0.3926491,0.2652508,0.1374191,0.1725728,280,53,217
2451.66,1.451594,-10.12268,1.862689,-0.4501099,0.2450108,0.1374191,0.1789644,181,88,268
2451.664,1.4555,-10.1179,1.546654,-0.5315128,0.2386192,0.1278317,0.1896171,158,140,143
2451.668,1.459406,-10.12268,1.158794,-0.5746084,0.2354234,0.1363538,0.2034655,257,23,180
2451.672,1.463313,-10.15142,0.9911995,-0.5267244,0.2396845,0.1203749,0.2077266,292,33,255
2451.676,1.467219,-10.18015,0.842759,-0.4836287,0.2471413,0.1299623,0.2130529,204,28,206
2451.68,1.471125,-10.14663,0.7422025,-0.3926491,0.2673814,0.1203749,0.2226403,191,123,154
2451.684,1.475031,-10.08438,0.7613561,-0.3160346,0.3067962,0.1225054,0.2386192,265,75,166
2451.688,1.478938,-9.998186,0.9816227,-0.3064578,0.3355583,0.1395496,0.2482066,256,55,217
2451.691,1.482844,-9.931148,1.268927,-0.272939,0.3632552,0.1331581,0.2524677,190,12,222
2451.695,1.48675,-9.883264,1.599327,-0.2394202,0.3802994,0.1416802,0.2588593,195,118,160
2451.699,1.490656,-9.797073,1.833958,-0.1197101,0.390952,0.1427454,0.2556635,274,116,123
2451.703,1.494563,-9.859322,2.164358,-0.02873042,0.4111921,0.1459412,0.241815,268,19,153
2451.707,1.498469,-9.935937,2.355894,0.01436521,0.4282363,0.1480718,0.2322276,164,32,211
2451.711,1.502375,-10.05086,2.442086,-0.05267244,0.4474111,0.1459412,0.2322276,236,97,203
2451.715,1.506281,-10.09395,2.63841,0.03351882,0.4623248,0.1459412,0.237554,257,126,189
2451.719,1.510188,-10.0748,2.863465,0.06224924,0.4804343,0.1459412,0.2684466,274,32,169
2451.723,1.514094,-10.0317,2.906561,0.004788403,0.4932174,0.149137,0.2908172,243,-13,243
2451.727,1.518,-9.931148,2.87783,0.01436521,0.5102617,0.149137,0.3131877,201,83,230
2451.73,1.521906,-9.868899,2.916138,-0.1149217,0.5283712,0.1523328,0.3238404,210,87,144
2451.734,1.525813,-9.792285,2.944868,-0.1532289,0.5411543,0.1619202,0.3206446,264,110,163
2451.738,1.529719,-9.744401,3.002329,-0.2154781,0.5507417,0.1555286,0.3078614,274,20,198
2451.742,1.533625,-9.840169,2.954445,-0.2346318,0.5539375,0.1608549,0.2993393,246,31,209
2451.746,1.537531,-9.921572,2.916138,-0.4357447,0.5603291,0.1512675,0.294013,198,110,156
2451.75,1.541438,-9.998186,2.806004,-0.4692635,0.5581986,0.1565939,0.298274,259,141,143
2451.754,1.545344,-9.993398,2.604891,-0.5267244,0.5571333,0.1523328,0.3089267,269,26,223
2451.758,1.54925,-9.988609,2.494758,-0.5650316,0.5539375,0.1533981,0.3174488,234,41,232
2451.762,1.553156,-9.907206,2.37026,-0.6560113,0.5432849,0.1597897,0.3227751,194,100,189
2451.766,1.557063,-10.0317,2.322376,-0.5554548,0.5326322,0.1640507,0.3291667,259,79,180
2451.77,1.560969,-10.03649,2.183512,-0.5985504,0.5134575,0.1725728,0.350472,281,17,182
2451.773,1.564875,-10.01734,2.126051,-0.4213795,0.4921522,0.1864213,0.3568636,274,18,183
2451.777,1.568781,-9.950302,2.097321,-0.1580173,0.4729774,0.1874865,0.3494067,205,111,257
2451.781,1.572688,-10.07959,2.126051,-0.01915361,0.459129,0.2077266,0.3494067,193,98,160
2451.785,1.576594,-10.12747,1.996764,0.2442086,0.4346279,0.2087918,0.370712,338,54,149
2451.789,1.5805,-10.04128,2.025495,0.3256114,0.4090615,0.2450108,0.390952,313,16,223
2451.793,1.584406,-10.02213,1.94888,0.4357447,0.3877563,0.241815,0.4005394,195,62,252
2451.797,1.588313,-10.00297,1.929727,0.5410896,0.3675162,0.278034,0.406931,219,109,164
2451.801,1.592219,-9.888053,1.977611,0.6847417,0.3515373,0.2769688,0.4037352,273,100,156
2451.805,1.596125,-9.77792,2.054225,0.7565677,0.3291667,0.314253,0.4005394,282,30,202
2451.809,1.600031,-9.677363,2.044648,0.6751649,0.3206446,0.3163835,0.4101268,215,20,217
2451.812,1.603938,-9.504981,2.011129,0.5889736,0.3057309,0.3483415,0.4293016,193,121,168
2451.816,1.607844,-9.490615,2.106897,0.521936,0.3004046,0.3579289,0.4367584,270,130,170
2451.82,1.61175,-9.610325,2.140416,0.3926491,0.2897519,0.3888215,0.4495416,286,23,154
2451.824,1.615656,-9.730036,2.145205,0.320823,0.2929477,0.40267,0.4538026,280,78,244
2451.828,1.619563,-9.859322,2.097321,0.1292869,0.3004046,0.4111921,0.4527374,213,136,206
2451.832,1.623469,-9.931148,2.164358,0.01436521,0.3067962,0.4293016,0.4538026,210,142,164
2451.836,1.627375,-9.964667,2.303222,0.3734955,0.3398194,0.4122573,0.4612595,257,24,154
2451.84,1.631281,-10.10353,2.542642,0.06224924,0.3376888,0.4463458,0.4836301,277,23,232
2451.844,1.635188,-10.17057,2.293645,-0.2106897,0.3685815,0.4303668,0.4921522,196,114,239
2451.848,1.639094,-10.02692,1.613692,0.01915361,0.4175837,0.4601942,0.5166533,184,130,146
2451.852,1.643,-9.782708,1.699883,-0.1436521,0.4623248,0.4569984,0.5368933,301,109,164
2451.855,1.646906,-9.959879,2.207454,-0.2920926,0.4697816,0.5038701,0.5262406,238,46,218
2451.859,1.650813,-10.10832,2.619257,-0.1771709,0.4708469,0.5081311,0.5123922,182,31,232
2451.863,1.654719,-10.20409,2.887407,-0.1244985,0.4783037,0.5379585,0.5326322,183,88,164
2451.867,1.658625,-10.2807,2.643199,-0.1675941,0.4868258,0.5283712,0.5486112,259,112,157
2451.871,1.662531,-10.55843,2.600103,-0.3064578,0.4676511,0.5464807,0.5496764,288,95,148
2451.875,1.666438,-10.76912,2.537854,-0.2633622,0.46339,0.5816344,0.551807,191,41,220
2451.879,1.670344,-10.95108,2.173935,-0.1915361,0.4814995,0.5826996,0.5475459,182,86,215
2451.883,1.67425,-11.02769,2.082955,-0.2537854,0.4910869,0.6050702,0.5454154,212,122,162
2451.887,1.678156,-11.18092,2.025495,-0.1149217,0.499609,0.6189186,0.5507417,278,32,159
2451.891,1.682063,-11.38682,1.742979,-0.06703765,0.5294364,0.6423545,0.5592638,261,44,236
2451.895,1.685969,-11.53526,1.450886,0.08140286,0.5624596,0.6434197,0.5731123,202,138,210
2451.898,1.689875,-11.61188,1.484405,0.2681506,0.5784386,0.6860303,0.5986786,182,121,179
2451.902,1.693781,-11.58794,1.604115,0.4118027,0.5912218,0.6924219,0.6167881,269,40,145
2451.906,1.697688,-11.6023,1.604115,0.6512229,0.6050702,0.7350325,0.6231797,283,24,251
2451.91,1.701594,-11.57357,1.450886,0.7517793,0.6210492,0.741424,0.6199839,166,55,257
2451.914,1.7055,-11.47301,1.221043,0.9433155,0.6199839,0.7925567,0.6295713,180,106,157
2451.918,1.709406,-11.28627,0.9002198,1.211466,0.6221144,0.8127968,0.6412892,250,140,157
2451.922,1.713313,-11.13304,0.8954314,1.441309,0.6072007,0.8735168,0.6657903,237,57,235
2451.926,1.717219,-11.1091,0.9528923,1.73819,0.5901565,0.9118664,0.684965,218,69,244
2451.93,1.721125,-11.09473,0.9576807,1.776498,0.5805691,0.9683254,0.7073356,199,158,260
2451.934,1.725031,-11.08515,0.818817,1.766921,0.5624596,1.002414,0.7307714,291,140,156
2451.938,1.728938,-11.13783,0.6512229,2.082955,0.5422196,1.055677,0.7605988,281,64,184
2451.941,1.732844,-11.20486,0.344765,1.819593,0.5145227,1.107875,0.7968178,248,78,217
2451.945,1.73675,-11.16177,0.1675941,2.001553,0.4921522,1.163269,0.8277105,196,99,230
2451.949,1.740656,-10.96544,0.1101333,1.92015,0.5113269,1.203749,0.8607337,190,111,148
2451.953,1.744563,-10.86968,0.4022259,3.289633,0.4665858,1.274056,0.9033442,265,74,178
2451.957,1.748469,-10.77391,-0.5410896,1.82917,0.5049353,1.298557,0.9544769,316,50,252
2451.961,1.752375,-10.70208,-0.9720459,1.599327,0.5209143,1.378452,0.9960222,191,40,230
2451.965,1.756281,-11.08515,-0.1819593,2.063802,0.5006743,1.455151,0.9970875,203,147,171
2451.969,1.760188,-11.03727,0.7230489,2.197877,0.4719121,1.510545,0.9960222,264,141,161
2451.973,1.764094,-10.74997,0.5171476,1.68073,0.4772385,1.562743,1.052481,265,50,233
2451.977,1.768,-11.12346,0.08619126,2.1883,0.4964132,1.634116,1.091896,196,46,237
2451.98,1.771906,-11.81778,0.1292869,2.442086,0.5262406,1.657551,1.10894,188,137,180
2451.984,1.775813,-12.06678,0.3734955,2.360683,0.531567,1.718272,1.143029,267,146,121
2451.988,1.779719,-11.99974,0.4070143,2.485181,0.5390238,1.754491,1.204814,240,34,161
2451.992,1.783625,-12.10508,0.4788403,2.413355,0.5805691,1.81308,1.244229,275,40,233
2451.996,1.787531,-12.28704,0.4261679,2.37026,0.6103965,1.855691,1.261273,163,137,233
2452,1.791438,-12.48337,-0.01436521,1.896208,0.6423545,1.885518,1.297492,203,121,169
2452.004,1.795344,-12.65096,-0.08619126,2.576161,0.6892261,1.936651,1.344364,245,34,163
2452.008,1.79925,-12.88559,-0.3543418,2.303222,0.7520767,1.970739,1.395496,258,97,260
2452.012,1.803156,-12.93348,-1.37906,2.082955,0.813862,1.999501,1.45089,214,132,229
2452.016,1.807063,-13.30697,-2.260126,1.881843,0.8948221,2.036786,1.494566,197,125,205
2452.02,1.810969,-13.7906,-2.394202,2.03986,0.9491506,2.071939,1.503088,317,134,189
2452.023,1.814875,-14.08269,-2.03986,2.06859,0.9821738,2.11455,1.507349,262,72,246
2452.027,1.818781,-14.14494,-1.905785,2.145205,1.017328,2.190184,1.548894,225,68,220
2452.031,1.822688,-14.70519,-1.915361,2.935291,1.00774,2.255165,1.578722,221,103,159
2452.035,1.826594,-15.68202,-1.661576,3.337517,0.9661948,2.325472,1.578722,284,157,180
2452.039,1.8305,-16.82166,-1.254562,3.921702,0.8777779,2.408563,1.576591,298,46,198
2452.043,1.834406,-19.09615,-2.1883,3.423708,0.7797736,2.444782,1.551025,259,83,253
2452.047,1.838313,-20.57098,-4.606444,3.524265,0.7510114,2.433064,1.521198,195,125,257
2452.051,1.842219,-21.24615,-7.417237,3.433285,0.8127968,2.400041,1.515871,213,130,144
2452.055,1.846125,-21.09771,-9.653421,3.337517,0.9257148,2.362757,1.538242,238,93,174
2452.059,1.850031,-20.36029,-11.36767,3.217807,1.146225,2.298841,1.59044,245,72,228
2452.062,1.853938,-19.69949,-11.57836,3.074155,1.346494,2.238121,1.643703,199,169,231
2452.066,1.857844,-19.03869,-10.99896,4.371812,1.556351,2.204032,1.69377,239,133,139
2452.07,1.86175,-18.57422,-9.787496,7.115567,1.731055,2.193379,1.738512,275,94,165
2452.074,1.865656,-18.48324,-8.590396,8.566454,1.835451,2.260491,1.785383,271,85,217
2452.078,1.869563,-18.57422,-7.565677,10.15142,1.867409,2.15716,1.822667,188,82,249
2452.082,1.873469,-17.86074,-5.588067,13.43147,1.660747,2.259426,1.815211,190,217,163
2452.086,1.877375,-17.96609,-2.686294,8.858546,1.431715,2.263687,1.745968,247,165,189
2452.09,1.881281,-17.44894,0.641646,5.123592,1.099353,2.303102,1.63305,264,118,240
2452.094,1.885188,-14.49929,4.91769,2.245761,0.5113269,2.437325,1.548894,210,125,227
2452.098,1.889094,-12.1386,7.292738,0.9097966,0.1992044,2.63866,1.524393,205,167,235
2452.102,1.893,-10.85531,8.322245,1.302446,0.07243798,2.863431,1.49137,347,156,165
2452.105,1.896906,-10.817,9.054871,0.4261679,0.04900216,2.98274,1.514806,255,100,197
2452.109,1.900813,-12.27268,11.02769,-4.654328,-0.03408846,3.16277,1.686314,268,103,236
2452.113,1.904719,-14.59505,12.93827,-6.052542,-0.2705772,3.294863,1.825863,210,203,236
2452.117,1.908625,-17.73146,14.24071,-6.224924,-0.4910869,3.36517,1.961152,217,141,163
2452.121,1.912531,-20.66675,14.77701,-6.224924,-0.6562029,3.353452,2.061287,275,110,163
2452.125,1.916438,-22.65394,14.88715,-5.492299,-0.7872304,3.278884,2.103897,273,96,279
2452.129,1.920344,-23.34347,14.23113,-5.094861,-0.9448896,3.129747,2.068744,185,111,232
2452.133,1.92425,-22.78322,12.80419,-5.928043,-1.070591,3.015764,1.999501,238,191,172
2452.137,1.928156,-21.49993,10.99896,-6.50744,-1.137702,2.867692,1.91215,326,143,167
2452.141,1.932063,-19.45528,9.136274,-6.737283,-1.151551,2.686597,1.834385,295,148,262
2452.145,1.935969,-16.1465,7.043741,-6.694188,-1.067395,2.506567,1.718272,192,126,279
2452.148,1.939875,-14.35563,5.951985,-6.569689,-0.9406285,2.387258,1.627724,192,178,177
2452.152,1.943781,-13.63258,5.171476,-6.119579,-0.8085357,2.238121,1.575526,255,177,202
2452.156,1.947688,-13.46978,4.548983,-4.946421,-0.7084008,2.081527,1.52972,287,91,148
2452.16,1.951594,-13.38838,4.501099,-3.002329,-0.5773733,1.81308,1.454086,290,80,258
2452.164,1.9555,-13.19205,5.324704,-2.585738,-0.4410195,1.567004,1.339037,208,184,230
2452.168,1.959406,-12.3876,5.406107,-3.457227,-0.3174488,1.350755,1.2911,182,167,177
2452.172,1.963313,-11.26711,5.430049,-4.821922,-0.1842907,1.193096,1.246359,249,94,185
2452.176,1.967219,-10.18493,5.765238,-5.142745,-0.1043959,1.057808,1.183509,284,107,231
2452.18,1.971125,-9.275137,6.727707,-3.77805,-0.1278317,0.8383631,1.06633,170,183,240
2452.184,1.975031,-8.872911,7.331045,-2.418144,-0.2045308,0.6391587,0.9864349,211,176,197
2452.188,1.978938,-8.595184,7.268796,-1.096544,-0.2854909,0.4378237,0.9491506,269,180,190
2452.191,1.982844,-8.183381,6.646304,-0.5027823,-0.3312972,0.2599245,0.9406285,258,113,229
2452.195,1.98675,-7.508216,5.631162,-0.3016694,-0.3685815,0.05432849,0.9161274,173,121,227
2452.199,1.990656,-6.785168,4.893748,-0.07182605,-0.3973436,-0.1012001,0.8607337,157,174,168
2452.203,1.994563,-6.191405,4.10845,0.2154781,-0.4218447,-0.2620551,0.7627293,263,194,164
2452.207,1.998469,-5.621585,3.217807,0.3591302,-0.4250405,-0.4261058,0.6317018,254,141,168
2452.211,2.002375,-5.00867,2.322376,0.5554548,-0.4175837,-0.5667207,0.4655206,162,121,234
2452.215,2.006281,-4.472369,1.551443,0.7374141,-0.3771036,-0.7627293,0.1885518,201,176,257
2452.219,2.010188,-4.012682,1.221043,0.7326257,-0.3259709,-0.9203885,-0.03515373,194,190,171
2452.223,2.014094,-3.414132,1.11091,0.5889736,-0.2652508,-1.065264,-0.2652508,243,108,136
2452.227,2.018,-3.016694,1.254562,0.3974375,-0.1970739,-1.206945,-0.4836301,296,137,226
2452.23,2.021906,-2.676717,1.714248,0.1532289,-0.1054612,-1.375256,-0.7478156,234,175,268
2452.234,2.025813,-2.676717,2.351106,-0.009576807,-0.03941478,-1.500958,-0.9203885,205,198,195
2452.238,2.029719,-2.777274,3.05979,-0.225055,0.01278317,-1.635181,-1.06633,254,213,193
2452.242,2.033625,-2.882619,3.801992,-0.4548983,0.0479369,-1.747034,-1.180313,266,90,216
2452.246,2.037531,-2.873042,4.582502,-0.7661445,0.0777643,-1.907889,-1.296427,197,123,292
2452.25,2.041438,-2.829946,4.960786,-0.9193734,0.08522115,-2.020807,-1.365669,211,212,185
2452.254,2.045344,-2.75812,5.295974,-1.187524,0.08841695,-2.124137,-1.435976,252,174,196
2452.258,2.04925,-2.810793,5.372589,-1.273715,0.08628642,-2.253034,-1.510545,271,120,256
2452.262,2.053156,-2.858677,5.45878,-1.450886,0.08202536,-2.368083,-1.580852,172,143,257
2452.266,2.057063,-2.925714,5.272032,-1.628057,0.06924219,-2.495915,-1.640507,202,166,216
2452.27,2.060969,-2.954445,4.999093,-1.762132,0.05965481,-2.60031,-1.676726,218,167,166
2452.273,2.064875,-2.753332,4.821922,-2.035071,0.04048005,-2.707902,-1.721467,286,142,184
2452.277,2.068781,-2.446874,4.774038,-2.020706,-0.003195793,-2.811233,-1.798166,265,89,235
2452.281,2.072688,-2.442086,4.280833,-1.838747,-0.06391587,-2.949717,-1.901497,154,199,254
2452.285,2.076594,-2.719813,3.974375,-1.762132,-0.0809601,-3.030677,-1.963282,179,162,209
2452.289,2.0805,-3.098097,3.687071,-1.891419,-0.07989483,-3.12229,-2.029329,317,113,118
2452.293,2.084406,-3.198653,3.552995,-1.987187,-0.07456851,-3.239469,-2.11668,261,132,268
2452.297,2.088313,-3.026271,3.476381,-2.197877,-0.0809601,-3.384345,-2.253034,185,130,227
2452.301,2.092219,-2.796428,3.481169,-2.375048,-0.09267801,-3.480219,-2.354234,209,175,157
2452.305,2.096125,-2.676717,3.663129,-2.509123,-0.1075917,-3.577158,-2.45863,269,168,172
2452.309,2.100031,-2.695871,3.940856,-2.566584,-0.1246359,-3.660249,-2.560896,266,105,200
2452.312,2.103938,-2.82037,4.165911,-2.657564,-0.149137,-3.756122,-2.659965,167,90,243
2452.316,2.107844,-2.992752,4.544195,-2.681506,-0.1949434,-3.850931,-2.78034,205,140,247
2452.32,2.11175,-3.117251,4.884171,-2.734178,-0.2396845,-3.913782,-2.855974,281,175,199
2452.324,2.115656,-3.275268,5.12838,-2.863465,-0.2854909,-3.967045,-2.91989,291,85,172
2452.328,2.119563,-3.825934,5.449203,-2.920926,-0.3217099,-4.027765,-2.964631,292,102,243
2452.332,2.123469,-5.501875,6.473921,-3.112462,-0.3483415,-4.102333,-2.939065,202,163,213
2452.336,2.127375,-6.967127,7.49864,-3.280056,-0.370712,-4.151336,-2.858104,178,143,153
2452.34,2.131281,-6.114791,7.608773,-3.342306,-0.4804343,-4.207795,-2.794189,266,79,126
2452.344,2.135188,-2.839523,5.683835,-3.902549,-0.7084008,-4.315386,-2.917759,283,92,229
2452.348,2.139094,-1.833958,4.429273,-4.156334,-0.8788432,-4.324974,-3.196859,220,110,243
2452.352,2.143,-4.122815,4.965574,-3.96001,-0.978978,-4.305799,-3.415238,216,160,164
2452.355,2.146906,-6.29675,5.760449,-4.022259,-0.994957,-4.327104,-3.475958,294,136,148
2452.359,2.150813,-5.793968,6.05733,-4.232949,-1.055677,-4.39102,-3.536678,264,93,241
2452.363,2.154719,-4.625598,5.779603,-4.625598,-1.118528,-4.426174,-3.598463,221,95,228
2452.367,2.158625,-4.520253,5.420473,-4.390966,-1.183509,-4.433631,-3.641074,214,136,151
2452.371,2.162531,-5.597643,5.114015,-4.252102,-1.213336,-4.418717,-3.696468,306,158,175
2452.375,2.166438,-6.641515,4.874595,-4.113238,-1.225054,-4.438957,-3.781689,316,106,175
2452.379,2.170344,-7.52737,4.716577,-3.916914,-1.21014,-4.458132,-3.844539,260,65,212
2452.383,2.17425,-8.470685,4.357447,-3.907337,-1.144094,-4.484763,-3.894607,214,115,222
2452.387,2.178156,-9.040505,4.285621,-3.806781,-1.083374,-4.500742,-3.932956,204,103,133
2452.391,2.182063,-9.586383,4.534618,-3.763685,-1.035437,-4.511395,-3.979828,279,25,93
2452.395,2.185969,-10.25197,4.874595,-3.773262,-0.9885654,-4.527374,-4.0267,254,60,234
2452.398,2.189875,-10.91756,5.085284,-3.720589,-0.9342369,-4.544418,-4.055462,263,130,201
2452.402,2.193781,-12.09551,5.281609,-3.754108,-0.8724516,-4.565723,-4.083159,231,155,129
2452.406,2.197688,-13.02446,5.415684,-4.022259,-0.8468852,-4.592355,-4.132161,308,97,124
2452.41,2.201594,-13.97735,5.72693,-4.141969,-0.8341021,-4.61366,-4.209925,293,63,228
2452.414,2.2055,-14.89193,6.17704,-4.127604,-0.8319715,-4.638161,-4.288755,230,73,206
2452.418,2.209406,-15.91186,7.249643,-3.754108,-0.8383631,-4.661597,-4.354801,238,94,159
2452.422,2.213313,-16.42901,8.063671,-3.763685,-0.8681905,-4.679707,-4.381433,329,152,166
2452.426,2.217219,-16.78335,8.523358,-4.084508,-0.9171927,-4.704208,-4.397412,271,41,141
2452.43,2.221125,-16.87433,8.346187,-4.012682,-0.9640643,-4.713795,-4.40913,239,16,192
2452.434,2.225031,-17.26698,7.584831,-4.276044,-0.9832391,-4.704208,-4.424043,224,123,193
2452.438,2.228938,-17.87032,7.082049,-4.510676,-0.9406285,-4.690359,-4.424043,227,88,113
2452.441,2.232844,-18.56464,7.082049,-4.539406,-0.850081,-4.67438,-4.396346,292,19,108
2452.445,2.23675,-19.15361,7.302315,-4.984728,-0.7254451,-4.648814,-4.336692,323,11,221
2452.449,2.240656,-19.72822,7.5561,-5.918467,-0.5613944,-4.638161,-4.26958,230,97,224
2452.453,2.244563,-19.96285,7.37893,-5.645528,-0.330232,-4.616856,-4.175837,223,96,91
2452.457,2.248469,-19.83357,7.082049,-5.415684,-0.1874865,-4.554005,-4.085289,321,36,78
2452.461,2.252375,-19.39303,6.684611,-4.812345,-0.1267665,-4.465589,-3.980893,325,55,192
2452.465,2.256281,-18.79927,6.473921,-4.58729,-0.1043959,-4.31219,-3.847735,226,42,162
2452.469,2.260188,-17.67879,6.335058,-5.133168,-0.0809601,-4.051201,-3.62403,219,101,128
2452.473,2.264094,-16.71632,6.363788,-6.052542,-0.0479369,-3.840278,-3.445065,325,112,129
2452.477,2.268,-15.40429,6.775591,-6.86657,0.001065264,-3.627225,-3.295928,342,20,201
2452.48,2.271906,-14.01566,8.030152,-6.785168,0.02024002,-3.402455,-3.177684,263,53,202
2452.484,2.275813,-11.66934,10.25676,-5.655104,-0.04261058,-3.075418,-3.047722,240,97,189
2452.488,2.279719,-9.792285,14.35084,-6.105214,-0.2290319,-2.815494,-2.949717,296,111,106
2452.492,2.283625,-8.480262,15.16966,-8.863335,-0.5635249,-2.624812,-2.822951,287,31,138
2452.496,2.287531,-7.043741,13.76187,-8.710106,-0.9033442,-2.554504,-2.650378,301,62,175
2452.5,2.291438,-5.731719,11.84651,-7.790732,-1.123854,-2.433064,-2.388323,251,98,201
2452.504,2.295344,-5.377377,7.010222,-7.680599,-1.092961,-2.277535,-1.899366,235,132,105
2452.508,2.29925,-5.329493,3.107674,-6.009446,-0.9118664,-2.087918,-1.434911,343,35,112
2452.512,2.303156,-4.687847,1.608904,-4.941632,-0.6402239,-1.798166,-0.9161274,336,33,125
2452.516,2.307063,-3.394978,2.059013,-4.036624,-0.3430151,-1.438107,-0.3685815,238,122,212
2452.52,2.310969,-1.838747,2.480393,-4.611232,0.04154531,-0.9118664,0.3472762,239,114,117
2452.523,2.314875,-1.393425,2.700659,-5.45878,0.2876214,-0.5166533,0.7882957,315,95,108
2452.527,2.318781,-1.838747,3.409343,-6.100426,0.4751079,-0.1182444,1.103614,294,50,145
2452.531,2.322688,-2.657564,4.572925,-6.694188,0.5741775,0.2524677,1.308145,229,20,168
2452.535,2.326594,-3.289633,6.167463,-6.74686,0.5699165,0.5912218,1.443433,268,93,136
2452.539,2.3305,-3.711013,8.034941,-6.900089,0.4506069,1.034372,1.593636,346,78,132
2452.543,2.334406,-4.122815,9.519346,-6.646304,0.3046656,1.343298,1.716141,310,25,133
2452.547,2.338313,-4.43885,10.79306,-6.861782,0.1257012,1.63092,1.859952,262,40,186
2452.551,2.342219,-4.788403,11.65019,-7.331045,-0.0660464,1.913215,2.019741,240,95,227
2452.555,2.346125,-5.377377,11.74116,-8.30788,-0.3131877,2.218946,2.209358,277,127,90
2452.559,2.350031,-6.014235,11.31979,-9.23683,-0.4783037,2.419216,2.330799,286,59,93
2452.562,2.353938,-6.880936,10.63026,-10.0317,-0.6178534,2.597115,2.437325,301,38,202
2452.566,2.357844,-7.661445,10.20409,-10.87925,-0.7446198,2.730273,2.535329,283,99,177
2452.57,2.36175,-8.480262,10.20888,-9.44752,-0.9076053,2.891128,2.661031,248,126,102
2452.574,2.365656,-10.26634,9.112332,-0.1532289,-1.201618,2.870888,2.747317,336,114,120
2452.578,2.369563,-15.57668,3.620033,16.49605,-1.858886,2.447978,2.828277,312,38,191
2452.582,2.373469,-25.73767,-13.22557,27.53811,-2.396845,1.910019,2.882606,237,30,199
2452.586,2.377375,-41.82191,-39.63361,37.72783,-2.7601,1.548894,2.761165,230,92,129
2452.59,2.381281,-61.44479,-57.86785,2.25055,-2.673814,1.193096,1.580852,295,126,89
2452.594,2.385188,-56.26374,-40.55299,2.75812,-3.075418,1.217597,0.6018744,288,13,167
2452.598,2.389094,-36.6265,-6.229713,-3.356671,-3.838148,1.391235,0.2759035,235,68,206
2452.602,2.393,-9.097966,27.17419,-5.961562,-3.996872,1.637311,0.5571333,229,92,178
2452.605,2.396906,0.7326257,28.41917,-8.015787,-2.771818,1.486044,0.02769688,310,144,110
2452.609,2.400813,-4.783615,4.726154,-13.83849,-0.572047,1.032241,-0.04048005,270,29,135
2452.613,2.404719,0.3591302,-17.01799,-13.87679,0.9970875,1.246359,0.3813647,284,39,181
2452.617,2.408625,4.707,-11.95185,-11.92791,0.5166533,1.766208,0.8341021,210,99,192
2452.621,2.412531,-5.171476,2.580949,0.5985504,-0.181095,2.315885,1.750229,244,111,106
2452.625,2.416438,-14.19762,-6.354211,3.246537,0.1704423,2.315885,2.19551,257,46,136
2452.629,2.420344,-15.76342,-16.31888,0.5315128,0.3451457,2.099636,2.057026,281,38,152
2452.633,2.42425,-11.25275,-4.620809,-1.015142,0.7499462,2.021872,1.916411,216,17,132
2452.637,2.428156,-9.639056,10.3238,-0.4644751,0.8436894,2.15716,1.778992,247,90,107
2452.641,2.432063,-10.56801,18.42099,0.5075708,0.6711166,2.07407,1.806688,309,98,109
2452.645,2.435969,-12.04762,24.2772,-0.7900865,0.4921522,2.079396,1.981392,313,55,202
2452.648,2.439875,-13.39316,27.14067,-4.91769,0.4655206,2.079396,2.309493,237,61,179
2452.652,2.443781,-12.32535,26.27397,-7.551312,0.3014698,2.05383,2.803776,238,138,117
2452.656,2.447688,-10.93671,20.15918,-10.17057,-0.5741775,1.923868,3.10205,264,144,129
2452.66,2.451594,-12.22479,19.29248,-9.643844,-1.34969,1.797101,2.895389,279,49,121
2452.664,2.4555,-13.63258,21.80639,-9.23683,-2.039981,1.662878,2.649313,231,53,206
2452.668,2.459406,-12.89996,20.36508,-9.44752,-2.647182,1.512675,2.508698,235,130,174
2452.672,2.463313,-10.31422,12.95742,-8.872911,-3.096724,1.385909,2.319081,175,126,92
2452.676,2.467219,-9.332598,-0.4644751,-7.149086,-3.354518,1.362473,1.882322,318,47,85
2452.68,2.471125,-9.557653,-5.774814,-5.061342,-3.14253,1.36993,1.557417,301,32,211
2452.684,2.475031,-10.35253,-6.200982,-3.20823,-2.579005,1.300688,1.335842,217,128,190
2452.688,2.478938,-11.09952,-4.074931,-2.873042,-1.864213,1.164334,1.221858,202,83,152
2452.691,2.482844,-11.1091,-1.163582,-3.361459,-0.9139969,0.9906959,1.18777,301,121,123
2452.695,2.48675,-10.00297,-0.3639187,-3.677494,-0.3014698,0.8713863,1.184574,306,13,199
2452.699,2.490656,-8.197746,-0.7374141,-4.065354,0.201335,0.8159926,1.136637,227,14,192
2452.703,2.494563,-6.751649,-1.000776,-3.739743,0.6167881,0.8106662,1.020523,216,114,117
2452.707,2.498469,-6.258443,0.7517793,-2.547431,1.042894,0.8213189,0.8149273,267,102,131
2452.711,2.502375,-6.991069,3.031059,-1.561019,1.220793,0.8191884,0.6785734,296,30,232
2452.715,2.506281,-8.662222,5.358223,-1.431733,1.287905,0.8223841,0.5976133,196,48,200
2452.719,2.510188,-10.61589,7.101202,-2.044648,1.279383,0.7946873,0.5826996,227,77,155
2452.723,2.514094,-12.42591,8.030152,-2.791639,1.18777,0.7797736,0.6125271,177,103,143
2452.727,2.518,-13.93425,8.192958,-3.318364,0.9086706,0.7084008,0.6231797,279,33,108
2452.73,2.521906,-14.02523,7.891289,-3.361459,0.6828345,0.6625945,0.5901565,254,54,182
2452.734,2.525813,-13.25909,7.015011,-3.021482,0.5581986,0.5944176,0.5677859,236,117,214
2452.738,2.529719,-11.83693,5.272032,-2.633622,0.5571333,0.5230448,0.592287,230,95,129
2452.742,2.533625,-10.34295,2.422932,-2.274492,0.6796387,0.4452805,0.6583334,284,56,123
2452.746,2.537531,-9.830592,1.321599,-2.442086,0.753142,0.4016047,0.6838998,277,33,177
2452.75,2.541438,-9.854534,1.695095,-2.676717,0.7286409,0.3845605,0.6743124,189,31,212
2452.754,2.545344,-10.18015,2.87783,-2.671929,0.6380934,0.3760383,0.6508766,228,95,165
2452.758,2.54925,-10.64462,4.175488,-2.260126,0.5070659,0.3632552,0.6295713,258,108,90
2452.762,2.553156,-10.85531,4.390966,-1.929727,0.4037352,0.3579289,0.6072007,264,34,212
2452.766,2.557063,-11.02769,4.443638,-1.599327,0.2961435,0.330232,0.5677859,228,22,202
2452.77,2.560969,-11.21444,4.458003,-1.240196,0.1704423,0.3195793,0.5166533,231,120,217
2452.773,2.564875,-11.22881,4.223372,-0.8283938,0.08415589,0.278034,0.4825648,302,126,162
2452.777,2.568781,-10.93671,3.428497,-0.4261679,0.04048005,0.2545982,0.4708469,276,31,141
2452.781,2.572688,-10.51055,2.762909,-0.1867477,0.06498113,0.2237055,0.4846953,301,33,188
2452.785,2.576594,-10.05086,1.963245,0.009576807,0.1320928,0.2141182,0.4878911,196,102,235
2452.789,2.5805,-9.734824,1.297657,0.2777274,0.241815,0.1981392,0.4729774,246,92,131
2452.793,2.584406,-9.572018,0.56982,0.5746084,0.40267,0.1736381,0.44315,300,50,141
2452.797,2.588313,-9.552865,0.3543418,0.8571242,0.5166533,0.1725728,0.4143879,272,28,188
2452.801,2.592219,-9.495404,0.4357447,1.240196,0.6189186,0.1565939,0.3834952,241,-14,195
2452.805,2.596125,-9.399636,0.7374141,1.551443,0.716923,0.1502023,0.3611246,213,114,108
2452.809,2.600031,-9.323021,0.9720459,1.934515,0.8202536,0.1395496,0.3366236,277,94,108
2452.812,2.603938,-9.366117,1.273715,2.092532,0.870321,0.1384844,0.3089267,308,43,201
2452.816,2.607844,-9.481039,1.537077,2.130839,0.8958874,0.1363538,0.2886867,223,74,194
2452.82,2.61175,-9.533711,1.848324,2.059013,0.8990832,0.1427454,0.273773,190,96,138
2452.824,2.615656,-9.610325,2.293645,1.944092,0.8777779,0.1480718,0.2609898,296,77,141
2452.828,2.619563,-9.639056,3.145981,1.80044,0.8159926,0.1619202,0.2482066,270,50,133
2452.832,2.623469,-9.586383,3.725378,1.599327,0.7424893,0.169377,0.2428803,287,42,179
2452.836,2.627375,-9.47625,4.089296,1.436521,0.6583334,0.1757686,0.2492719,210,107,234
2452.84,2.631281,-9.361328,4.194641,1.163582,0.5699165,0.1778992,0.2567287,192,95,120
2452.844,2.635188,-9.433155,3.864241,0.8379706,0.4548679,0.1842907,0.2801645,231,22,122
2452.848,2.639094,-9.56723,3.260903,0.5027823,0.3845605,0.181095,0.3131877,297,32,201
2452.852,2.643,-9.787496,2.39899,0.2394202,0.3185141,0.185356,0.3408846,244,74,215
2452.855,2.646906,-10.07001,1.656788,0.2011129,0.2759035,0.1832255,0.3611246,177,111,146
2452.859,2.650813,-10.17057,1.024718,0.05746084,0.2599245,0.201335,0.3739078,295,119,125
2452.863,2.654719,-10.20888,0.248997,0.009576807,0.2759035,0.1970739,0.3728426,288,31,219
2452.867,2.658625,-10.20888,-0.1340753,-0.06703765,0.3153183,0.2077266,0.3600594,201,53,208
2452.871,2.662531,-10.17057,-0.2346318,0.09097966,0.366451,0.2162487,0.3526025,199,145,109
2452.875,2.666438,-10.18015,-0.1819593,0.1292869,0.4207795,0.2269013,0.3515373,265,132,105
2452.879,2.670344,-10.20888,0.1628057,0.3495534,0.5028048,0.2407498,0.3568636,266,46,135
2452.883,2.67425,-10.33337,0.5602432,0.5267244,0.5635249,0.2428803,0.3717773,213,33,187
2452.887,2.678156,-10.27591,1.015142,0.5650316,0.608266,0.2556635,0.3898868,172,121,183
2452.891,2.682063,-10.33816,1.594538,0.6272808,0.6167881,0.2695119,0.4016047,232,113,143
2452.895,2.685969,-10.15142,2.255338,0.7805097,0.6125271,0.2822951,0.4175837,304,52,148
2452.898,2.689875,-9.983821,2.437297,1.010353,0.6029397,0.2961435,0.4314321,272,61,194
2452.902,2.693781,-9.677363,2.475605,1.024718,0.5890912,0.3057309,0.4410195,228,134,202
2452.906,2.697688,-9.562441,2.336741,1.082179,0.5528722,0.3217099,0.44315,225,126,135
2452.91,2.701594,-9.461885,2.293645,1.283292,0.5262406,0.3462109,0.4442153,243,100,132
2452.914,2.7055,-9.279926,2.049437,1.407791,0.5038701,0.3728426,0.4452805,271,93,195
2452.918,2.709406,-9.255984,1.982399,1.493982,0.4761732,0.406931,0.4527374,237,60,196
2452.922,2.713313,-9.227253,2.140416,1.599327,0.4399542,0.4346279,0.4612595,157,142,150
2452.926,2.717219,-9.193734,2.207454,1.651999,0.4133226,0.46339,0.46339,288,145,124
2452.93,2.721125,-9.385271,2.087744,1.723825,0.3941478,0.4910869,0.4676511,275,43,177
2452.934,2.725031,-9.509769,1.991976,1.790863,0.3739078,0.515588,0.4825648,213,22,177
2452.938,2.728938,-9.648633,1.776498,1.508347,0.3653857,0.5294364,0.4900216,180,106,206
2452.941,2.732844,-9.753978,1.369483,1.561019,0.3792341,0.5507417,0.4942827,240,118,130
2452.945,2.73675,-9.792285,1.024718,1.206678,0.4090615,0.5752428,0.5006743,282,62,121
2452.949,2.740656,-9.825804,0.9576807,0.9720459,0.4282363,0.6061355,0.515588,297,62,203
2452.953,2.744563,-9.825804,0.8523358,0.9768343,0.4644553,0.6125271,0.5368933,193,101,185
2452.957,2.748469,-9.830592,0.9385271,0.4788403,0.4889564,0.6327671,0.5550028,212,134,137
2452.961,2.752375,-9.768343,0.8714894,0.3016694,0.5091964,0.6519418,0.5752428,299,32,122
2452.965,2.756281,-9.753978,0.8092402,0.2537854,0.5486112,0.6828345,0.6018744,299,64,180
2452.969,2.760188,-9.821015,0.9002198,0.04309563,0.5581986,0.7190535,0.6189186,200,35,214
2452.973,2.764094,-9.983821,0.9576807,0.07661445,0.5645902,0.7360977,0.6274408,227,120,104
2452.977,2.768,-10.31422,0.9433155,0.2537854,0.5677859,0.7648599,0.6274408,226,85,141
2452.98,2.771906,-10.63983,0.890643,0.4022259,0.5773733,0.7957525,0.6412892,263,41,201
2452.984,2.775813,-10.82179,0.7709329,0.5746084,0.5816344,0.8000136,0.6551376,224,47,239
2452.988,2.779719,-10.83616,0.794875,0.7996634,0.5795039,0.8447547,0.6796387,193,161,227
2452.992,2.783625,-10.82179,0.8331822,1.015142,0.5869607,0.8596684,0.7041398,293,97,137
2452.996,2.787531,-10.89362,1.015142,1.331176,0.5826996,0.9086706,0.7222493,248,69,105
2453,2.791438,-11.03248,1.101333,1.383849,0.5635249,0.9512811,0.7286409,232,51,214
2453.004,2.795344,-11.07558,0.914585,1.561019,0.5464807,0.9768475,0.7339672,179,144,198
2453.008,2.79925,-11.12346,0.6129156,1.833958,0.5379585,1.02798,0.7467504,216,119,146
2453.012,2.803156,-11.21923,0.5027823,2.049437,0.5326322,1.051416,0.7616641,289,85,143
2453.016,2.807063,-11.315,0.6320692,2.322376,0.5038701,1.122789,0.7861652,249,50,208
2453.02,2.810969,-11.37246,0.5123592,2.580949,0.4974785,1.146225,0.8149273,182,77,218
2453.023,2.814875,-11.40119,0.3112462,2.566584,0.5006743,1.205879,0.8586031,181,141,125
2453.027,2.818781,-11.33415,0.2920926,2.604891,0.479369,1.235707,0.8926916,273,136,152
2453.031,2.822688,-11.30542,0.5889736,2.715025,0.4548679,1.312406,0.9214537,259,77,218
2453.035,2.826594,-11.27669,0.7709329,2.561796,0.4314321,1.34969,0.9470201,141,57,193
2453.039,2.8305,-11.33415,0.8140286,2.475605,0.3952131,1.415736,0.9768475,193,144,119
2453.043,2.834406,-11.36288,0.9433155,2.42772,0.3611246,1.45089,1.003479,256,156,92
2453.047,2.838313,-11.51611,0.8858546,2.336741,0.3195793,1.516937,1.031176,240,47,181
2453.051,2.842219,-11.84651,0.5841852,2.126051,0.2854909,1.558482,1.06633,277,41,194
2453.055,2.846125,-11.99974,0.2633622,1.982399,0.2695119,1.625594,1.098288,195,104,191
2453.059,2.850031,-12.08114,-0.1675941,1.924938,0.2716424,1.652225,1.130246,183,99,144
2453.062,2.853938,-12.17691,-0.5650316,1.867477,0.2727077,1.698032,1.157942,282,19,151
2453.066,2.857844,-11.77468,-1.067814,1.556231,0.2822951,1.768339,1.194161,271,58,226
2453.07,2.86175,-11.41555,-1.134852,1.637634,0.2908172,1.806688,1.229315,207,150,219
2453.074,2.865656,-11.12346,-0.9768343,1.474828,0.3014698,1.882322,1.265534,199,97,134
2453.078,2.869563,-10.9846,-0.6895301,1.556231,0.2972088,1.922802,1.2911,263,105,123
2453.082,2.873469,-11.12346,-0.3064578,1.479617,0.2812298,2.003762,1.326254,273,66,208
2453.086,2.877375,-11.32936,0.01436521,1.594538,0.2663161,2.042112,1.357147,229,84,204
2453.09,2.881281,-11.51132,0.3112462,1.604115,0.2567287,2.100701,1.386974,193,91,166
2453.094,2.885188,-11.65019,0.344765,1.651999,0.2556635,2.13692,1.423193,251,163,155
2453.098,2.889094,-11.90876,0.5123592,2.255338,0.2482066,2.186988,1.456216,277,82,166
2453.102,2.893,-12.25352,0.248997,1.58975,0.2695119,2.220011,1.502023,181,112,205
2453.105,2.896906,-12.47379,-0.02394202,1.94888,0.2865561,2.27434,1.538242,192,150,240
2453.109,2.900813,-12.91911,0.07182605,2.212242,0.3089267,2.295645,1.558482,206,155,135
2453.113,2.904719,-13.13938,-0.06703765,1.94888,0.3419499,2.33719,1.588309,268,74,136
2453.117,2.908625,-13.34049,-0.818817,1.824382,0.4111921,2.359561,1.634116,286,80,220
2453.121,2.912531,-13.76187,-1.192312,1.723825,0.4783037,2.380866,1.669269,203,145,209
2453.125,2.916438,-14.02044,-1.37906,1.862689,0.556068,2.404302,1.701227,214,122,160
2453.129,2.920344,-14.14494,-1.651999,2.312799,0.6029397,2.405367,1.738512,265,72,154
2453.133,2.92425,-14.22635,-2.456451,1.690306,0.7275756,2.420281,1.803493,268,86,208
2453.137,2.928156,-14.40831,-2.537854,2.169147,0.7840346,2.486327,1.845038,207,126,217
2453.141,2.932063,-15.02122,-1.302446,2.681506,0.7914915,2.511894,1.846103,190,156,153
2453.145,2.935969,-15.6485,-0.5650316,3.366248,0.7723167,2.547047,1.837581,269,133,171
2453.148,2.939875,-16.31888,-0.521936,3.380613,0.7510114,2.602441,1.85143,269,72,199
2453.152,2.943781,-18.19593,-1.982399,2.513912,0.7680557,2.586462,1.858886,195,70,217
2453.156,2.947688,-20.17354,-4.443638,1.905785,0.8383631,2.555569,1.841842,136,151,243
2453.16,2.951594,-21.58612,-6.890512,2.480393,1.000283,2.509763,1.820537,261,155,138
2453.164,2.9555,-22.44325,-8.949526,3.548207,1.247425,2.422411,1.802427,277,78,155
2453.168,2.959406,-23.04659,-11.77947,4.908113,1.654356,2.390453,1.832255,254,98,236
2453.172,2.963313,-22.88378,-13.18726,6.330269,1.964348,2.33719,1.89404,134,114,202
2453.176,2.967219,-22.56774,-13.08192,8.212112,2.247708,2.291384,1.955826,151,155,186
2453.18,2.971125,-22.57732,-11.55921,8.121132,2.419216,2.291384,1.980327,228,91,132
2453.184,2.975031,-21.65795,-9.351752,7.8865,2.484197,2.220011,1.931324,269,97,217
2453.188,2.978938,-19.63724,-5.33907,8.66701,2.388323,2.139051,1.825863,178,139,205
2453.191,2.982844,-16.85039,-1.805228,7.28795,2.202967,2.143312,1.771535,163,192,156
2453.195,2.98675,-13.97256,1.594538,5.425261,1.900432,2.230664,1.737446,246,141,139
2453.199,2.990656,-11.62624,4.625598,0.8523358,1.544633,2.417085,1.705488,242,123,207
2453.203,2.994563,-9.964667,8.408436,-3.050213,1.010936,2.745186,1.643703,195,71,235
2453.207,2.998469,-10.05565,10.93671,-3.485958,0.6572682,2.959305,1.587244,198,161,106
2453.211,3.002375,-11.08994,13.39316,-2.456451,0.4324974,3.074353,1.55209,261,175,162
2453.215,3.006281,-13.08671,15.26064,-0.8571242,0.3312972,3.148922,1.631985,285,99,159
2453.219,3.010188,-16.74026,15.93102,-3.294421,0.2556635,3.167031,1.965413,214,124,210
2453.223,3.014094,-19.31642,14.76265,-4.036624,0.08735168,3.173423,2.247708,160,183,240
2453.227,3.018,-21.65316,12.469,-4.103662,-0.1033307,3.082875,2.420281,169,172,140
2453.23,3.021906,-22.76407,10.13705,-3.993528,-0.2247708,2.958239,2.431999,272,117,131
2453.234,3.025813,-22.75449,8.140286,-3.102885,-0.298274,2.745186,2.324407,265,123,218
2453.238,3.029719,-21.04503,6.703765,-2.825158,-0.4314321,2.530003,2.082592,170,207,198
2453.242,3.033625,-19.36909,5.923255,-3.605668,-0.4836301,2.369148,1.866343,188,194,158
2453.246,3.037531,-17.32444,5.243302,-4.625598,-0.4932174,2.223207,1.660747,246,182,149
2453.25,3.041438,-15.07868,4.88896,-5.798756,-0.4538026,2.084723,1.479652,227,109,217
2453.254,3.045344,-12.9239,4.697424,-7.876923,-0.3515373,1.906823,1.253816,186,128,230
2453.258,3.04925,-11.97101,4.577714,-8.2169,-0.2034655,1.79071,1.095092,224,231,159
2453.262,3.053156,-11.47301,4.43885,-8.743624,-0.03621899,1.668204,0.9715212,283,183,157
2453.266,3.057063,-11.24317,4.903325,-8.647856,0.1416802,1.558482,0.86606,272,120,191
2453.27,3.060969,-11.36288,5.995081,-7.034164,0.330232,1.365669,0.7605988,187,128,238
2453.273,3.064875,-11.13783,6.842628,-5.075708,0.4293016,1.154747,0.7233146,174,168,243
2453.277,3.068781,-10.72602,7.637503,-3.366248,0.4708469,0.9097358,0.7467504,189,158,170
2453.281,3.072688,-10.06522,7.800309,-2.60968,0.4452805,0.6551376,0.8255799,260,136,180
2453.285,3.076594,-9.174581,7.49864,-2.408567,0.4090615,0.4303668,0.9118664,252,128,213
2453.289,3.0805,-8.240842,6.976704,-2.753332,0.3366236,0.1992044,0.9917612,174,209,221
2453.293,3.084406,-7.733271,6.780379,-2.557007,0.2545982,0.06072007,0.9938917,155,221,147
2453.297,3.088313,-7.393295,6.651092,-1.613692,0.1278317,-0.08415589,0.9459548,214,134,163
2453.301,3.092219,-7.019799,6.588843,-0.5315128,-0.05219796,-0.2545982,0.8586031,243,183,235
2453.305,3.096125,-6.464344,6.713341,0.641646,-0.3078614,-0.499609,0.7318367,119,163,222
2453.309,3.100031,-5.971139,6.670246,1.082179,-0.4740427,-0.6913566,0.6306365,177,210,184
2453.312,3.103938,-5.453991,6.272808,0.9337386,-0.5944176,-0.8777779,0.5251754,260,175,142
2453.316,3.107844,-4.927267,5.827487,0.641646,-0.6700513,-1.056742,0.4197142,261,120,225
2453.32,3.11175,-4.510676,5.209783,0.3495534,-0.7307714,-1.229315,0.3121225,181,128,206
2453.324,3.115656,-4.357447,4.252102,0.1819593,-0.7893609,-1.454086,0.1320928,212,181,235
2453.328,3.119563,-4.161122,3.409343,0.1340753,-0.8117315,-1.606419,-0.03941478,234,206,163
2453.332,3.123469,-4.027047,2.624045,0.1149217,-0.8074704,-1.764078,-0.2269013,222,120,148
2453.336,3.127375,-3.782839,1.867477,0.1005565,-0.7691209,-1.915345,-0.4207795,277,119,242
2453.34,3.131281,-3.466804,1.115698,-0.05746084,-0.6743124,-2.103897,-0.6828345,171,187,214
2453.344,3.135188,-3.294421,0.9002198,-0.2825158,-0.5933523,-2.232794,-0.8745821,211,169,162
2453.348,3.139094,-3.05979,1.144428,-0.5506664,-0.5187838,-2.351039,-1.061003,234,104,161
2453.352,3.143,-2.719813,1.805228,-0.7517793,-0.4538026,-2.466087,-1.233576,269,117,201
2453.355,3.146906,-2.317587,3.213019,-0.9864111,-0.3728426,-2.599245,-1.399757,181,202,206
2453.359,3.150813,-2.231396,4.161122,-1.173159,-0.3376888,-2.687662,-1.478587,201,171,131
2453.363,3.154719,-2.15957,4.903325,-1.47004,-0.3238404,-2.790993,-1.533981,265,185,167
2453.367,3.158625,-2.15957,5.391742,-1.68073,-0.330232,-2.865561,-1.564873,259,134,204
2453.371,3.162531,-2.25055,5.439626,-1.819593,-0.3536678,-2.967827,-1.580852,173,119,217
2453.375,3.166438,-2.327164,5.123592,-1.8579,-0.406931,-3.078614,-1.582983,215,184,177
2453.379,3.170344,-2.561796,4.654328,-1.958457,-0.4495416,-3.157444,-1.591505,266,163,152
2453.383,3.17425,-2.8491,4.156334,-1.987187,-0.4985438,-3.242665,-1.621332,245,112,144
2453.387,3.178156,-3.169923,3.62961,-1.996764,-0.5539375,-3.311907,-1.674596,201,107,212
2453.391,3.182063,-3.481169,3.083732,-1.953669,-0.6178534,-3.399259,-1.769404,186,147,199
2453.395,3.185969,-3.533842,2.901772,-2.073379,-0.6583334,-3.481284,-1.845038,173,189,153
2453.398,3.189875,-3.485958,2.825158,-2.236184,-0.6870956,-3.557983,-1.933455,240,115,187
2453.402,3.193781,-3.466804,2.734178,-2.30801,-0.7062703,-3.625095,-2.03572,246,109,241
2453.406,3.197688,-3.337517,2.767697,-2.523489,-0.7190535,-3.730556,-2.169944,169,190,238
2453.41,3.201594,-3.476381,3.031059,-2.614468,-0.7201188,-3.796602,-2.261556,182,193,156
2453.414,3.2055,-3.888183,3.634398,-2.700659,-0.7084008,-3.86904,-2.333994,268,95,148
2453.418,3.209406,-4.568137,4.304775,-2.772486,-0.6956177,-3.942544,-2.376605,262,106,187
2453.422,3.213313,-4.965574,4.836287,-2.873042,-0.6934871,-4.005394,-2.401106,141,114,220
2453.426,3.217219,-4.697424,4.970363,-3.145981,-0.741424,-4.083159,-2.452239,180,163,164
2453.43,3.221125,-3.294421,4.252102,-3.399766,-0.8468852,-4.158792,-2.58007,263,131,118
2453.434,3.225031,-2.269703,3.514688,-3.586514,-0.9555422,-4.191816,-2.785667,291,122,182
2453.438,3.228938,-2.748544,3.227384,-3.600879,-1.024784,-4.206729,-2.978479,185,92,212
2453.441,3.232844,-4.299986,3.500323,-3.596091,-1.053547,-4.23123,-3.161705,183,128,211
2453.445,3.23675,-5.070919,3.77805,-3.648763,-1.052481,-4.263188,-3.273558,288,178,146
2453.449,3.240656,-5.329493,3.998317,-3.888183,-1.030111,-4.293016,-3.371562,265,99,146
2453.453,3.244563,-5.473145,4.22816,-3.921702,-0.9960222,-4.319647,-3.450392,230,151,202
2453.457,3.248469,-7.16824,4.620809,-3.873818,-0.9108011,-4.319647,-3.521764,212,158,234
2453.461,3.252375,-7.445967,5.319916,-3.983952,-0.8713863,-4.37078,-3.542004,179,146,196
2453.465,3.256281,-5.631162,4.616021,-4.386177,-0.8926916,-4.440022,-3.595267,246,86,139
2453.469,3.260188,-4.836287,3.806781,-4.343082,-0.8735168,-4.417652,-3.685815,238,122,209
2453.473,3.264094,-5.880159,3.380613,-4.189853,-0.8383631,-4.41126,-3.766775,217,97,222
2453.477,3.268,-7.723695,3.414132,-4.156334,-0.7691209,-4.430435,-3.912716,155,159,123
2453.48,3.271906,-8.662222,3.969586,-4.070143,-0.7084008,-4.456001,-4.000068,264,113,123
2453.484,3.275813,-9.222465,4.553772,-4.113238,-0.660464,-4.479437,-4.052266,286,46,231
2453.488,3.279719,-9.648633,4.994305,-4.094085,-0.6348976,-4.505003,-4.097007,173,92,214
2453.492,3.283625,-10.34774,5.995081,-4.357447,-0.648746,-4.526309,-4.187554,155,157,166
2453.496,3.287531,-11.12346,6.813898,-4.534618,-0.680704,-4.541222,-4.250405,235,149,144
2453.5,3.291438,-11.96143,7.216124,-4.314351,-0.7297061,-4.559332,-4.29195,265,70,189
2453.504,3.295344,-12.81856,7.311892,-4.070143,-0.7968178,-4.576376,-4.319647,215,84,197
2453.508,3.29925,-14.28381,7.264008,-4.730942,-0.8596684,-4.597681,-4.372911,174,119,185
2453.512,3.303156,-15.38514,6.919243,-4.668693,-0.9395632,-4.609399,-4.466654,233,142,157
2453.516,3.307063,-16.18959,7.125144,-4.544195,-0.9928265,-4.625378,-4.544418,322,70,106
2453.52,3.310969,-17.02756,7.785944,-4.826711,-1.034372,-4.622182,-4.625378,264,64,188
2453.523,3.314875,-17.74103,8.585607,-4.687847,-1.083374,-4.625378,-4.682902,232,130,229
2453.527,3.318781,-18.0044,8.566454,-4.721366,-1.145159,-4.632835,-4.716991,185,72,118
2453.531,3.322688,-17.94215,7.709329,-5.200206,-1.159008,-4.612595,-4.738296,318,117,129
2453.535,3.326594,-18.07622,6.703765,-5.573701,-1.115332,-4.592355,-4.759602,301,54,186
2453.539,3.3305,-18.44972,6.081272,-5.48751,-1.024784,-4.544418,-4.762797,195,57,197
2453.543,3.334406,-19.34994,5.473145,-5.166687,-0.8681905,-4.45174,-4.709534,179,130,126
2453.547,3.338313,-19.6947,5.305551,-4.927267,-0.7510114,-4.359062,-4.632835,276,116,116
2453.551,3.342219,-19.75695,5.190629,-4.874595,-0.6540724,-4.250405,-4.538026,284,62,196
2453.555,3.346125,-19.46007,5.358223,-5.027823,-0.5933523,-4.120443,-4.4315,209,72,167
2453.559,3.350031,-18.85673,5.803545,-5.272032,-0.5645902,-3.960653,-4.304734,178,116,218
2453.562,3.353938,-17.65005,6.248866,-5.645528,-0.5773733,-3.734817,-4.111921,282,101,114
2453.566,3.357844,-16.61097,6.83784,-5.602432,-0.6210492,-3.544135,-3.956392,317,52,80
2453.57,3.36175,-15.32768,8.025364,-5.114015,-0.6902914,-3.352387,-3.781689,295,58,194
2453.574,3.365656,-13.7092,9.888053,-4.352659,-0.8266452,-3.113768,-3.581419,189,141,197
2453.578,3.369563,-12.0572,12.68448,-9.054871,-1.148355,-2.858104,-3.306581,202,119,124
2453.582,3.373469,-11.45386,12.03326,-8.992621,-1.520132,-2.792058,-3.132943,284,63,147
2453.586,3.377375,-10.3238,12.00932,-8.437167,-1.764078,-2.77821,-2.981675,302,17,176
2453.59,3.381281,-9.849746,11.16656,-7.929596,-1.87167,-2.750513,-2.795254,249,42,216
2453.594,3.385188,-9.471462,6.751649,-7.651869,-1.682053,-2.69938,-2.368083,205,139,113
2453.598,3.389094,-8.341399,3.246537,-7.771579,-1.333711,-2.573679,-1.91428,264,113,83
2453.602,3.393,-6.153098,2.049437,-7.321469,-0.8937569,-2.368083,-1.402953,312,9,174
2453.605,3.396906,-3.361459,2.600103,-6.426037,-0.40267,-2.084723,-0.8767126,208,64,191
2453.609,3.400813,-1.106121,2.614468,-5.372589,0.02663161,-1.715076,-0.366451,245,97,109
2453.613,3.404719,0.3830723,2.011129,-5.616797,0.4655206,-1.177117,0.2535329,296,120,116
2453.617,3.408625,0.3303998,2.647987,-5.386954,0.7052051,-0.741424,0.6178534,320,70,123
2453.621,3.412531,-0.5363012,4.223372,-5.257667,0.8404936,-0.3227751,0.8852347,298,46,186
2453.625,3.416438,-1.61848,5.837064,-5.24809,0.8671253,0.06711166,1.075917,231,105,206
2453.629,3.420344,-2.580949,7.479486,-5.358223,0.8064052,0.5741775,1.272991,217,116,101
2453.633,3.42425,-3.131616,8.882488,-5.238513,0.7158577,0.9395632,1.397627,288,25,119
2453.637,3.428156,-3.62961,10.56801,-5.142745,0.588026,1.287905,1.523328,301,65,163
2453.641,3.432063,-4.060566,12.40196,-5.425261,0.4143879,1.607484,1.658617,218,96,192
2453.645,3.435969,-4.79798,13.90073,-6.17704,0.2173139,1.905758,1.806688,219,109,120
2453.648,3.439875,-5.348647,14.81053,-7.053318,-0.08202536,2.224272,2.011219,323,126,103
2453.652,3.443781,-6.315904,14.73871,-8.09719,-0.330232,2.43626,2.163552,309,27,176
2453.656,3.447688,-7.474698,14.26944,-9.097966,-0.6061355,2.589658,2.300971,230,15,227
2453.66,3.451594,-8.762778,13.74272,-9.92636,-0.9054748,2.734534,2.437325,227,140,139
2453.664,3.4555,-10.43872,12.86644,-4.113238,-1.368865,2.813363,2.605637,253,95,118
2453.668,3.459406,-13.9151,9.591172,10.79306,-2.003762,2.550243,2.735599,281,22,124
2453.672,3.463313,-20.89659,-1.177947,21.20305,-2.650378,1.967543,2.870888,214,82,196
2453.676,3.467219,-32.71916,-24.4448,30.79901,-3.138269,1.644768,2.946521,228,117,183
2453.68,3.471125,-50.85284,-51.55195,6.98628,-3.401389,1.154747,2.221076,189,110,165
2453.684,3.475031,-54.17121,-48.2288,0.3351882,-3.627225,1.38804,1.138768,267,30,111
2453.688,3.478938,-45.97825,-24.44959,-1.316811,-4.220578,1.405084,0.3579289,297,71,168
2453.691,3.482844,-23.56852,14.40352,-3.351882,-4.688229,1.686314,0.4016047,234,106,143
2453.695,3.48675,-1.187524,31.1342,-9.141062,-4.420847,1.541438,0.4356932,215,141,122
2453.699,3.490656,-6.665457,11.38203,-12.56956,-2.591788,1.344364,0.1363538,262,124,94
2453.703,3.494563,-8.063671,-12.86644,-13.08671,-0.1203749,1.200553,0.5166533,299,55,191
2453.707,3.498469,0.06703765,-19.70907,-13.93425,0.6902914,1.596831,0.9970875,212,70,194
2453.711,3.502375,0.7852981,-4.711789,-7.915231,-0.1502023,2.152899,1.402953,201,130,112
2453.715,3.506281,-14.89193,-3.466804,0.7182605,-0.386691,2.51722,2.379801,302,104,98
2453.719,3.510188,-21.06897,-17.78892,2.580949,0.2183792,2.321211,2.710033,290,59,182
2453.723,3.514094,-16.73547,-17.17121,-1.891419,0.9757822,1.962217,2.392584,223,73,176
2453.727,3.518,-10.25676,0.3351882,-2.94008,1.199488,2.083657,2.084723,223,136,193
2453.73,3.521906,-8.834604,13.63258,-1.92015,1.339037,2.196575,1.827994,294,134,107
2453.734,3.525813,-8.944737,18.4162,-1.340753,1.144094,1.978196,1.864213,299,21,108
2453.738,3.529719,-8.853758,21.45205,-0.2154781,0.7360977,2.024002,2.128398,277,52,193
2453.742,3.533625,-8.724471,23.23333,-2.662352,0.4804343,2.022937,2.522546,191,111,201
2453.746,3.537531,-7.417237,24.06652,-5.286397,0.2929477,2.038916,3.006176,237,120,115
2453.75,3.541438,-6.766014,22.29481,-8.092402,-0.1768339,1.963282,3.351322,257,50,150
2453.754,3.545344,-8.925584,21.34191,-7.594408,-0.7488809,1.812015,3.185141,293,65,231
2453.758,3.54925,-11.17613,23.54458,-6.584055,-1.438107,1.634116,2.834669,187,65,191
2453.762,3.553156,-11.99974,24.59324,-7.04853,-2.153965,1.463673,2.568353,208,117,138
2453.766,3.557063,-10.18972,17.56386,-7.599196,-2.933738,1.281513,2.325472,201,106,124
2453.77,3.560969,-8.78672,8.681375,-7.335834,-3.262905,1.219728,2.068744,263,67,198
2453.773,3.564875,-8.944737,0.08140286,-6.090849,-3.30445,1.239968,1.785383,190,53,184
2453.777,3.568781,-10.18015,-4.376601,-4.252102,-3.032808,1.294296,1.554221,191,107,124
2453.781,3.572688,-12.52167,-4.194641,-3.093309,-2.303102,1.197357,1.397627,261,124,134
2453.785,3.576594,-13.4602,-2.27928,-3.98874,-1.685248,1.059938,1.326254,279,84,141
2453.789,3.5805,-12.87123,-1.580173,-3.993528,-1.056742,0.9182579,1.255947,266,33,196
2453.793,3.584406,-10.88883,-2.351106,-4.185065,-0.4079963,0.7542072,1.159008,173,131,181
2453.797,3.588313,-8.422801,-3.591302,-4.194641,0.205596,0.6924219,1.019458,200,147,125
2453.801,3.592219,-6.502652,-3.414132,-3.083732,0.9203885,0.6870956,0.7829694,230,62,123
2453.805,3.596125,-6.722918,-1.474828,-2.102109,1.372061,0.7115966,0.6530071,237,90,196
2453.809,3.600031,-7.723695,0.890643,-1.963245,1.709749,0.716923,0.5933523,206,151,179
2453.812,3.603938,-8.925584,3.624821,-2.614468,1.846103,0.7403588,0.5944176,205,121,132
2453.816,3.607844,-10.79785,6.919243,-3.409343,1.666074,0.7499462,0.6125271,255,161,130
2453.82,3.61175,-12.14818,8.51857,-3.739743,1.39017,0.7488809,0.5986786,253,68,185
2453.824,3.615656,-13.12501,9.275137,-3.524265,1.122789,0.7254451,0.5528722,177,88,221
2453.828,3.619563,-13.64216,9.165004,-2.901772,0.9672601,0.6508766,0.5049353,172,151,132
2453.832,3.623469,-13.51287,7.97748,-2.422932,0.9534117,0.5624596,0.5336975,246,152,172
2453.836,3.627375,-12.44027,4.989516,-1.968034,0.9821738,0.4569984,0.6625945,276,56,80
2453.84,3.631281,-11.07079,3.442862,-2.087744,0.9374327,0.4111921,0.7243798,203,-10,206
2453.844,3.635188,-9.974244,3.361459,-2.207454,0.8181231,0.3962784,0.7510114,225,89,191
2453.848,3.639094,-9.619902,3.816357,-2.236184,0.6721819,0.3856257,0.7659251,189,90,131
2453.852,3.643,-9.672575,4.472369,-2.140416,0.4527374,0.4079963,0.7819041,240,72,147
2453.855,3.646906,-10.04128,4.663905,-1.872266,0.294013,0.4111921,0.7744472,239,38,190
2453.859,3.650813,-10.56322,4.716577,-1.517924,0.169377,0.4048005,0.7329019,197,126,204
2453.863,3.654719,-11.1474,4.386177,-1.244985,0.07350325,0.3728426,0.6593987,197,99,138
2453.867,3.658625,-11.39161,3.864241,-0.7613561,-0.05326322,0.3376888,0.5699165,231,48,144
2453.871,3.662531,-11.10431,3.490746,-0.5075708,-0.128897,0.3174488,0.5422196,272,89,211
2453.875,3.666438,-10.63504,2.906561,-0.3303998,-0.1470065,0.2908172,0.5422196,226,80,212
2453.879,3.670344,-10.27113,2.231396,-0.2873042,-0.09054748,0.2748382,0.5496764,139,119,103
2453.883,3.67425,-9.940725,1.422156,-0.1819593,0.001065264,0.2535329,0.5390238,265,129,133
2453.887,3.678156,-9.643844,0.6272808,0.07661445,0.1715076,0.2258361,0.495348,258,67,218
2453.891,3.682063,-9.414001,0.1532289,0.272939,0.3185141,0.2119876,0.4601942,203,31,182
2453.895,3.685969,-9.212888,-0.1340753,0.6607997,0.4687164,0.1917476,0.42291,204,135,182
2453.898,3.689875,-9.035717,-0.02873042,1.005565,0.6018744,0.1917476,0.3834952,273,123,161
2453.902,3.693781,-9.069236,0.4596867,1.316811,0.7435546,0.1842907,0.3206446,260,44,149
2453.906,3.697688,-9.318233,0.9002198,1.508347,0.8255799,0.1725728,0.2769688,272,72,197
2453.91,3.701594,-9.653421,1.446098,1.623269,0.8852347,0.1821602,0.2556635,188,103,223
2453.914,3.7055,-9.92636,2.011129,1.541866,0.9086706,0.1661813,0.2609898,220,126,133
2453.918,3.709406,-10.09395,2.911349,1.35033,0.882039,0.1832255,0.2833603,242,45,145
2453.922,3.713313,-10.05565,3.639187,1.23062,0.8202536,0.1821602,0.2929477,257,54,211
2453.926,3.717219,-10.04607,4.338293,1.005565,0.7339672,0.1949434,0.2961435,207,91,224
2453.93,3.721125,-9.955091,4.707,0.7374141,0.6412892,0.1874865,0.2908172,187,137,146
2453.934,3.725031,-9.859322,4.831499,0.4979939,0.5464807,0.185356,0.2822951,255,151,147
2453.938,3.728938,-9.821015,4.64954,0.07182605,0.4016047,0.1832255,0.3025351,282,65,208
2453.941,3.732844,-9.892841,3.974375,-0.1149217,0.294013,0.1640507,0.330232,163,68,202
2453.945,3.73675,-9.974244,2.87783,-0.1867477,0.2087918,0.1715076,0.3632552,198,128,146
2453.949,3.740656,-10.12268,1.704672,-0.2059013,0.1597897,0.1640507,0.3845605,262,145,151
2453.953,3.744563,-10.31422,0.2154781,-0.1197101,0.1320928,0.181095,0.3941478,289,68,137
2453.957,3.748469,-10.50576,-0.5602432,-0.04788403,0.149137,0.1842907,0.386691,174,60,182
2453.961,3.752375,-10.51055,-1.04866,0.1484405,0.1864213,0.1981392,0.3781689,191,115,192
2453.965,3.756281,-10.4866,-1.268927,0.4022259,0.2482066,0.205596,0.3653857,179,144,141
2453.969,3.760188,-10.32859,-1.235408,0.8571242,0.330232,0.2183792,0.3643204,266,94,149
2453.973,3.764094,-10.13226,-0.8762778,1.067814,0.4548679,0.237554,0.3739078,237,67,201
2453.977,3.768,-10.05086,-0.3160346,1.225831,0.5294364,0.2684466,0.390952,199,141,183
2453.98,3.771906,-9.959879,0.3974375,1.522712,0.5731123,0.2769688,0.4154531,182,131,107
2453.984,3.775813,-9.854534,1.015142,1.728614,0.5986786,0.314253,0.4538026,247,125,162
2453.988,3.779719,-9.83538,1.436521,1.872266,0.5784386,0.3312972,0.5028048,249,92,186
2453.992,3.783625,-9.763554,1.613692,1.996764,0.5379585,0.3696468,0.5251754,193,49,196
2453.996,3.787531,-9.68694,1.561019,2.106897,0.5060006,0.3856257,0.5283712,199,171,157
2454,3.791438,-9.519346,1.369483,2.231396,0.4814995,0.4133226,0.5262406,242,141,126
2454.004,3.795344,-9.289502,0.9624691,2.30801,0.4687164,0.4538026,0.5336975,248,71,108
2454.008,3.79925,-9.212888,0.7996634,2.738967,0.4729774,0.4740427,0.5443501,162,64,218
2454.012,3.803156,-9.203311,0.9816227,2.126051,0.4601942,0.5070659,0.5656554,187,117,221
2454.016,3.807063,-9.275137,0.914585,2.293645,0.459129,0.5528722,0.5848302,202,143,92
2454.02,3.810969,-9.241618,1.144428,1.987187,0.46339,0.5763081,0.6061355,282,56,123
2454.023,3.814875,-9.318233,1.565808,1.733402,0.4484763,0.6295713,0.6466155,268,51,223
2454.027,3.818781,-9.409213,1.776498,1.556231,0.4293016,0.6625945,0.6625945,201,140,189
2454.031,3.822688,-9.706094,1.695095,1.264138,0.4218447,0.684965,0.6615292,217,162,136
2454.035,3.826594,-9.988609,1.446098,1.029507,0.4207795,0.7030745,0.6583334,271,80,164
2454.039,3.8305,-10.17057,1.04866,0.6224924,0.4474111,0.7307714,0.6732471,240,61,202
2454.043,3.834406,-10.22324,0.8619126,0.4501099,0.4804343,0.7350325,0.6870956,196,82,214
2454.047,3.838313,-10.17057,0.8810662,0.1197101,0.5091964,0.7584683,0.7062703,203,163,129
2454.051,3.842219,-10.21845,0.9193734,-0.1771709,0.531567,0.7648599,0.7297061,227,154,127
2454.055,3.846125,-10.36689,1.221043,-0.4788403,0.5454154,0.7914915,0.7563377,279,121,217
2454.059,3.850031,-10.4866,1.460463,-0.5985504,0.5475459,0.8085357,0.7637946,188,72,236
2454.062,3.853938,-10.57279,1.623269,-0.866701,0.5422196,0.8245147,0.7680557,206,156,130
2454.066,3.857844,-10.77391,1.561019,-1.01993,0.5475459,0.8383631,0.7659251,281,180,115
2454.07,3.86175,-11.0229,1.484405,-1.134852,0.5507417,0.8607337,0.7595335,245,54,161
2454.074,3.865656,-11.31021,1.532289,-1.254562,0.5486112,0.8692558,0.7499462,268,58,215
2454.078,3.869563,-11.43471,1.73819,-1.192312,0.5411543,0.8948221,0.7424893,222,151,197
2454.082,3.873469,-11.49217,1.877054,-1.091756,0.5422196,0.8873653,0.7403588,207,145,118
2454.086,3.877375,-11.51132,2.025495,-0.9337386,0.5379585,0.9139969,0.7435546,261,75,179
2454.09,3.881281,-11.42992,2.293645,-0.7326257,0.531567,0.922519,0.741424,268,68,245
2454.094,3.885188,-11.46823,2.360683,-0.593762,0.5368933,0.9416938,0.7382283,166,134,238
2454.098,3.889094,-11.63582,2.212242,-0.3064578,0.5486112,0.9416938,0.7339672,172,138,163
2454.102,3.893,-11.79384,1.987187,-0.04788403,0.5624596,0.9651296,0.7329019,223,112,146
2454.105,3.896906,-11.82257,1.604115,0.3734955,0.5901565,0.9864349,0.7307714,277,73,216
2454.109,3.900813,-11.79384,1.508347,0.7230489,0.6029397,1.006675,0.7392935,189,41,219
2454.113,3.904719,-11.75074,1.455675,1.01993,0.6072007,1.031176,0.7510114,190,120,142
2454.117,3.908625,-11.66934,1.417367,1.489193,0.608266,1.064199,0.7659251,253,145,106
2454.121,3.912531,-11.55442,1.316811,1.896208,0.5944176,1.105744,0.7840346,218,57,136
2454.125,3.916438,-11.49696,1.206678,2.255338,0.5464807,1.155812,0.8106662,158,74,194
2454.129,3.920344,-11.45386,1.130063,2.470816,0.5006743,1.206945,0.8341021,207,139,208
2454.133,3.92425,-11.39161,1.096544,2.667141,0.4506069,1.243164,0.8554073,166,130,167
2454.137,3.928156,-11.36288,0.9289502,2.892196,0.4037352,1.295362,0.8799084,252,89,104
2454.141,3.932063,-11.3533,0.6272808,3.1795,0.3387541,1.352886,0.9161274,288,35,247
2454.145,3.935969,-11.3533,0.1867477,3.189077,0.2993393,1.409345,0.942759,190,126,207
2454.148,3.939875,-11.42992,-0.3543418,3.308787,0.2684466,1.459412,0.9736517,169,153,146
2454.152,3.943781,-11.53048,-0.8475474,3.270479,0.2524677,1.522263,1.016262,257,102,132
2454.156,3.947688,-11.6837,-1.25935,3.442862,0.2482066,1.577657,1.062069,231,91,207
2454.16,3.951594,-11.82736,-1.642422,3.466804,0.2567287,1.669269,1.115332,184,85,241
2454.164,3.9555,-11.96622,-1.968034,3.380613,0.2673814,1.722533,1.152616,157,180,152
2454.168,3.959406,-11.77468,-2.226608,3.351882,0.2950782,1.768339,1.199488,251,137,174
2454.172,3.963313,-11.57357,-2.375048,3.169923,0.3217099,1.834385,1.25062,241,84,198
2454.176,3.967219,-11.10431,-2.341529,2.925714,0.3653857,1.898301,1.311341,191,112,221
2454.18,3.971125,-10.72602,-2.006341,2.686294,0.3834952,1.962217,1.363538,197,172,228
2454.184,3.975031,-10.4483,-1.73819,2.571373,0.40267,2.024002,1.414671,270,174,132
2454.188,3.978938,-10.51533,-1.532289,2.863465,0.3898868,2.092179,1.455151,245,96,144
2454.191,3.982844,-10.74039,-1.412579,2.217031,0.3994742,2.166748,1.503088,291,116,204
2454.195,3.98675,-11.12346,-1.316811,2.322376,0.4005394,2.234925,1.535046,191,177,228
2454.199,3.990656,-11.6454,-1.201889,2.269703,0.4101268,2.286057,1.559547,182,146,145
2454.203,3.994563,-12.0572,-1.489193,2.006341,0.4261058,2.341451,1.595766,201,106,134
2454.207,3.998469,-12.5121,-2.106897,2.087744,0.4559332,2.373409,1.629855,230,106,227
2454.211,4.002375,-13.20163,-2.791639,2.379836,0.5390238,2.437325,1.674596,170,99,201
2454.215,4.006281,-13.82412,-3.605668,2.183512,0.6157228,2.455435,1.706554,167,150,145
2454.219,4.010188,-14.24071,-4.596867,1.968034,0.7243798,2.482066,1.744903,251,156,145
2454.223,4.014094,-14.66209,-4.841076,2.183512,0.8117315,2.526807,1.775796,240,86,201
2454.227,4.018,-15.22233,-3.605668,3.251326,0.8671253,2.60031,1.785383,188,115,199
2454.23,4.021906,-15.2367,-2.116474,4.64954,0.8692558,2.668487,1.794971,181,195,125
2454.234,4.025813,-15.8975,-1.034295,5.104438,0.8223841,2.754774,1.812015,246,162,152
2454.238,4.029719,-17.82723,-1.690306,4.213795,0.7819041,2.779275,1.816276,236,111,167
2454.242,4.033625,-20.90617,-5.841852,3.428497,0.8202536,2.732403,1.783253,187,95,221
2454.246,4.037531,-22.52465,-8.8777,3.5099,0.9395632,2.666357,1.743838,184,164,224
2454.25,4.041438,-23.21418,-10.62068,3.265691,1.122789,2.58007,1.706554,179,195,191
2454.254,4.045344,-23.07532,-11.70765,4.381389,1.362473,2.277535,1.690575,277,123,120
2454.258,4.04925,-22.34269,-11.9758,6.440402,1.53185,2.455435,1.766208,277,87,245
2454.262,4.053156,-21.31797,-11.63582,8.346187,1.776861,2.388323,1.892975,180,150,214
2454.266,4.057063,-20.53267,-10.51055,11.42992,1.904693,2.364887,1.987783,204,168,190
2454.27,4.060969,-20.07778,-8.2169,12.45943,1.938781,2.332929,2.039981,253,179,139
2454.273,4.064875,-19.91497,-4.616021,9.457097,1.838646,2.299906,2.018676,262,134,227
2454.277,4.068781,-18.00918,0.6799533,7.661445,1.548894,2.284992,1.930259,223,111,209
2454.281,4.072688,-15.93581,4.979939,4.927267,1.22825,2.361691,1.867409,215,175,155
2454.285,4.076594,-13.91989,8.279149,0.9528923,0.8341021,2.535329,1.79071,236,181,186
2454.289,4.0805,-12.34929,10.58716,-0.3016694,0.4399542,2.775014,1.69164,234,131,217
2454.293,4.084406,-12.3062,11.74595,-1.934515,0.1555286,2.957174,1.59044,182,169,249
2454.297,4.088313,-13.43626,12.64138,-1.824382,0.01278317,3.132943,1.542503,184,196,227
2454.301,4.092219,-15.34204,12.85686,-1.321599,0.0479369,3.212838,1.659682,239,203,144
2454.305,4.096125,-17.64048,12.40196,-3.792415,0.08309063,3.239469,1.892975,287,127,177
2454.309,4.100031,-20.17354,11.44907,-3.552995,-0.08202536,3.269297,2.167813,293,201,157
2454.312,4.103938,-21.70104,10.39562,-4.807557,-0.2024002,3.184075,2.2541,195,189,228
2454.316,4.107844,-21.84948,9.610325,-4.223372,-0.3653857,3.111637,2.239186,187,194,143
2454.32,4.11175,-21.17432,9.394847,-4.285621,-0.5049353,2.965696,2.125203,250,148,142
2454.324,4.115656,-20.1496,9.466673,-4.673482,-0.6370281,2.829342,1.938781,238,169,226
2454.328,4.119563,-18.78969,9.428366,-5.635951,-0.7435546,2.619485,1.705488,203,136,262
2454.332,4.123469,-17.5064,8.844181,-6.282385,-0.7499462,2.461826,1.576591,160,231,152
2454.336,4.127375,-16.16086,7.790732,-7.474698,-0.6881608,2.302036,1.460478,216,184,164
2454.34,4.131281,-14.88715,6.454768,-7.939173,-0.5933523,2.160356,1.342233,262,126,217
2454.344,4.135188,-13.5847,5.085284,-8.054094,-0.479369,2.017611,1.220793,165,119,231
2454.348,4.139094,-13.06276,4.237737,-8.202535,-0.3078614,1.861017,1.02585,204,227,144
2454.352,4.143,-12.86165,4.683058,-7.082049,-0.1683118,1.715076,0.8809737,246,227,191
2454.355,4.146906,-12.49294,5.592855,-4.76925,-0.05432849,1.503088,0.7872304,263,169,184
2454.359,4.150813,-12.04283,6.488286,-2.719813,0.07243798,1.244229,0.7605988,195,123,211
2454.363,4.154719,-11.05642,6.770802,-1.728614,0.1523328,0.8809737,0.8266452,188,237,192
2454.367,4.158625,-10.12747,6.320692,-1.833958,0.1821602,0.6540724,0.8873653,188,211,146
2454.371,4.162531,-9.251195,6.105214,-2.049437,0.1832255,0.46339,0.90654,242,154,138
2454.375,4.166438,-8.360552,6.23929,-2.245761,0.1587244,0.2950782,0.8767126,272,137,247
2454.379,4.170344,-7.546524,6.607997,-1.403002,0.08415589,0.08309063,0.7904262,165,202,235
2454.383,4.17425,-7.115567,6.856994,-0.545878,-0.02024002,-0.0958738,0.7158577,178,211,150
2454.387,4.178156,-6.751649,6.895301,0.2394202,-0.1384844,-0.2790993,0.6423545,213,184,170
2454.391,4.182063,-6.248866,6.555324,0.641646,-0.2471413,-0.4719121,0.5528722,246,118,213
2454.395,4.185969,-5.688623,6.009446,0.5650316,-0.3163835,-0.6540724,0.4506069,192,121,237
2454.398,4.189875,-4.955997,5.281609,0.4261679,-0.3696468,-0.8767126,0.3089267,176,203,176
2454.402,4.193781,-4.620809,4.707,0.3639187,-0.3973436,-1.049285,0.1842907,255,213,157
2454.406,4.197688,-4.414908,4.189853,0.320823,-0.4154531,-1.201618,0.0330232,230,120,229
2454.41,4.201594,-4.223372,3.634398,0.1963245,-0.4250405,-1.358212,-0.1512675,199,132,271
2454.414,4.2055,-3.873818,2.916138,0.04309563,-0.4090615,-1.564873,-0.4111921,185,208,244
2454.418,4.209406,-3.562572,2.42772,-0.06703765,-0.3717773,-1.719337,-0.6125271,194,197,152
2454.422,4.213313,-3.184288,2.135628,-0.3016694,-0.3153183,-1.855691,-0.8170578,274,178,168
2454.426,4.217219,-2.949656,2.030283,-0.4261679,-0.2503371,-1.984588,-1.021589,268,138,232
2454.43,4.221125,-2.662352,2.384625,-0.6751649,-0.1555286,-2.143312,-1.26873,200,212,246
2454.434,4.225031,-2.576161,2.94008,-0.9241618,-0.08735168,-2.250904,-1.425324,188,204,178
2454.438,4.228938,-2.446874,3.696647,-1.240196,-0.0330232,-2.359561,-1.556351,275,141,156
2454.441,4.232844,-2.379836,4.386177,-1.479617,0.003195793,-2.460761,-1.650095,292,154,233
2454.445,4.23675,-2.293645,4.88896,-1.647211,0.0181095,-2.563026,-1.703358,192,148,247
2454.449,4.240656,-2.264915,5.27682,-1.891419,0.02024002,-2.682336,-1.739577,185,179,158
2454.453,4.244563,-2.288857,5.252878,-2.015918,0.0181095,-2.773949,-1.757686,243,233,147
2454.457,4.248469,-2.226608,5.142745,-2.27928,0.005326322,-2.870888,-1.781122,270,128,241
2454.461,4.252375,-2.269703,4.927267,-2.27928,-0.01917476,-2.953978,-1.827994,188,175,210
2454.465,4.256281,-2.509123,4.429273,-2.197877,-0.07243798,-3.073288,-1.906823,175,183,245
2454.469,4.260188,-2.810793,4.151546,-2.164358,-0.1065264,-3.157444,-1.966478,254,211,138
2454.473,4.264094,-3.05979,3.840299,-2.202666,-0.1384844,-3.242665,-2.032525,237,103,167
2454.477,4.268,-3.265691,3.715801,-2.336741,-0.1683118,-3.327886,-2.106028,259,91,212
2454.48,4.271906,-3.122039,3.605668,-2.389413,-0.2087918,-3.414173,-2.190184,176,170,211
2454.484,4.275813,-2.964022,3.653552,-2.619257,-0.2641856,-3.535613,-2.304167,195,241,162
2454.488,4.279719,-2.911349,3.706224,-2.686294,-0.3036004,-3.610181,-2.398976,279,83,161
2454.492,4.283625,-2.916138,3.830723,-2.724601,-0.3419499,-3.682619,-2.491654,267,126,233
2454.496,4.287531,-2.964022,4.084508,-2.801216,-0.3781689,-3.756122,-2.582201,172,170,192
2454.5,4.291438,-2.978387,4.352659,-2.801216,-0.4261058,-3.8488,-2.703641,239,154,152
2454.504,4.295344,-3.045425,4.55856,-2.82037,-0.4644553,-3.920173,-2.789928,231,185,156
2454.508,4.29925,-3.078943,4.764461,-2.892196,-0.5060006,-3.975567,-2.873018,296,100,231
2454.512,4.303156,-3.203442,4.932055,-2.949656,-0.5550028,-4.033091,-2.953978,140,97,267
2454.516,4.307063,-3.557784,4.955997,-3.011906,-0.6306365,-4.104464,-3.069027,169,138,138
2454.52,4.310969,-3.950433,5.051766,-3.045425,-0.6945524,-4.149205,-3.16277,249,191,169
2454.523,4.314875,-4.472369,5.214571,-3.141193,-0.753142,-4.196077,-3.242665,249,103,102
2454.527,4.318781,-5.252878,5.602432,-3.356671,-0.7946873,-4.235491,-3.291667,185,106,219
2454.531,4.322688,-6.014235,6.095637,-3.471592,-0.8202536,-4.27171,-3.317233,196,116,247
2454.535,4.326594,-6.545747,6.86657,-3.864241,-0.8479505,-4.329235,-3.345996,205,156,127
2454.539,4.3305,-4.984728,6.641515,-4.242525,-0.9416938,-4.41126,-3.390737,237,94,160
2454.543,4.334406,-3.840299,6.009446,-4.362235,-1.04822,-4.433631,-3.461044,301,79,236
2454.547,4.338313,-4.113238,5.358223,-4.036624,-1.132376,-4.432565,-3.523895,170,152,235
2454.551,4.342219,-5.406107,4.91769,-3.739743,-1.203749,-4.445348,-3.660249,176,142,157
2454.555,4.346125,-6.215348,4.778827,-3.524265,-1.225054,-4.470915,-3.775297,252,137,147
2454.559,4.350031,-6.631939,4.501099,-3.533842,-1.216532,-4.493285,-3.863714,230,58,209
2454.562,4.353938,-7.04853,4.261679,-3.53863,-1.185639,-4.498612,-3.943609,208,68,221
2454.566,4.357844,-7.714118,4.481946,-3.500323,-1.124919,-4.520982,-4.043744,190,129,148
2454.57,4.36175,-8.432378,4.922479,-3.495534,-1.069525,-4.534831,-4.10766,275,141,150
2454.574,4.365656,-9.227253,5.334281,-3.342306,-1.012001,-4.546549,-4.155597,244,79,226
2454.578,4.369563,-10.16578,5.760449,-3.596091,-0.9512811,-4.566789,-4.193946,201,35,198
2454.582,4.373469,-11.15698,5.861006,-3.62961,-0.9086706,-4.585963,-4.240818,185,136,195
2454.586,4.377375,-12.718,6.124368,-3.849876,-0.8777779,-4.617921,-4.329235,293,72,191
2454.59,4.381281,-13.89116,6.354211,-3.936068,-0.8713863,-4.640292,-4.40913,250,56,171
2454.594,4.385188,-14.83447,6.636727,-3.687071,-0.8586031,-4.65414,-4.486894,264,49,195
2454.598,4.389094,-15.68681,7.335834,-3.734955,-0.8617989,-4.676511,-4.551875,205,116,176
2454.602,4.393,-16.75462,8.207323,-4.031836,-0.8969527,-4.709534,-4.615791,189,122,146
2454.605,4.396906,-17.23346,8.614338,-3.859453,-0.9406285,-4.726578,-4.6339,289,37,105
2454.609,4.400813,-17.55429,8.298303,-3.907337,-0.9736517,-4.731905,-4.642422,298,77,216
2454.613,4.404719,-17.98045,7.465121,-4.266467,-0.9811085,-4.723383,-4.645618,228,62,196
2454.617,4.408625,-18.80885,6.871359,-4.01747,-0.9203885,-4.701012,-4.638161,218,139,130
2454.621,4.412531,-19.59893,6.904878,-4.266467,-0.8287757,-4.656271,-4.583833,304,121,134
2454.625,4.416438,-20.36508,7.163451,-4.960786,-0.6998787,-4.617921,-4.51246,277,39,204
2454.629,4.420344,-20.70027,7.249643,-5.334281,-0.5422196,-4.595551,-4.420847,200,37,203
2454.633,4.42425,-20.84871,7.311892,-5.784391,-0.3621899,-4.575311,-4.319647,219,79,153
2454.637,4.428156,-20.1496,7.369353,-4.975151,-0.2066613,-4.517786,-4.187554,287,117,105
2454.641,4.432063,-19.52232,7.307103,-5.061342,-0.1864213,-4.420847,-4.06718,256,15,153
2454.645,4.435969,-18.68914,6.971915,-5.123592,-0.2119876,-4.299407,-3.921238,295,26,173
2454.648,4.439875,-17.69315,6.780379,-4.999093,-0.2237055,-4.149205,-3.7476,223,112,187
2454.652,4.443781,-15.98369,7.393295,-4.788403,-0.181095,-3.905259,-3.482349,224,124,122
2454.656,4.447688,-14.67646,8.236054,-5.204994,-0.1427454,-3.703924,-3.258644,294,33,123
2454.66,4.451594,-13.53682,9.251195,-6.74686,-0.1171791,-3.534547,-3.047722,285,59,208
2454.664,4.4555,-12.4307,10.39084,-8.025364,-0.1352886,-3.416303,-2.874083,241,49,203
2454.668,4.459406,-10.96544,11.31021,-8.010999,-0.1821602,-3.337473,-2.735599,249,116,132
2454.672,4.463313,-9.825804,10.7787,-8.212112,-0.1587244,-3.255448,-2.541721,310,96,141
2454.676,4.467219,-8.398859,8.499416,-7.584831,-0.00958738,-3.163835,-2.29671,287,46,199
2454.68,4.471125,-6.751649,5.712565,-8.106767,0.2663161,-3.012568,-1.938781,222,48,215
2454.684,4.475031,-4.965574,3.256114,-7.991845,0.6167881,-2.788862,-1.49137,267,96,110
2454.688,4.478938,-2.633622,2.485181,-6.014235,1.117462,-2.354234,-0.8511463,296,102,103
2454.691,4.482844,-0.9672575,3.32794,-4.606444,1.444499,-1.953695,-0.3802994,286,6,73
2454.695,4.48675,0.2202666,3.825934,-4.065354,1.677791,-1.512675,0.08841695,240,26,186
2454.699,4.490656,0.6799533,4.821922,-4.084508,1.864213,-1.029045,0.5028048,234,128,152
2454.703,4.494563,-0.3830723,6.426037,-4.611232,1.955826,-0.4346279,0.902279,238,104,111
2454.707,4.498469,-1.388637,7.661445,-5.525817,1.884453,-0.02130529,1.123854,346,-17,101
2454.711,4.502375,-2.106897,8.987833,-6.191405,1.731055,0.3760383,1.30921,282,52,218
2454.715,4.506281,-2.466028,10.60631,-6.287174,1.52972,0.7456851,1.470065,250,125,197
2454.719,4.510188,-2.959233,12.4307,-6.047753,1.26873,1.089766,1.607484,242,98,99
2454.723,4.514094,-4.003105,14.7004,-6.306327,0.8319715,1.522263,1.796036,274,32,100
2454.727,4.518,-4.960786,15.72033,-6.756437,0.4463458,1.81308,1.962217,285,69,191
2454.73,4.521906,-5.899313,15.78737,-7.350199,0.03621899,2.07407,2.139051,241,79,191
2454.734,4.525813,-6.751649,14.93024,-8.245631,-0.370712,2.298841,2.302036,234,95,104
2454.738,4.529719,-7.714118,13.09149,-9.35654,-0.8745821,2.560896,2.495915,311,45,89
2454.742,4.533625,-8.231265,12.06678,-10.31901,-1.205879,2.720685,2.626942,280,13,167
2454.746,4.537531,-8.791508,11.32457,-11.11867,-1.482848,2.858104,2.740925,217,58,191
2454.75,4.541438,-9.150639,10.79306,-11.60709,-1.699097,2.951848,2.844256,239,94,200
2454.754,4.545344,-9.337386,10.38605,-10.07001,-1.888714,3.042395,2.965696,284,100,94
2454.758,4.54925,-10.66856,8.781932,1.757344,-2.185923,3.005111,3.063701,292,13,129
2454.762,4.553156,-16.27578,1.747767,20.09693,-2.956109,2.536395,3.186206,298,56,173
2454.766,4.557063,-27.11673,-19.04348,37.09576,-3.592072,1.986718,3.292732,222,142,174
2454.77,4.560969,-48.83214,-52.49527,39.20266,-3.783819,1.478587,3.073288,221,106,124
2454.773,4.564875,-68.97695,-69.67606,-3.107674,-3.490872,1.318797,1.379517,292,25,103
2454.777,4.568781,-56.96285,-47.27112,-1.216254,-3.921238,1.059938,0.1012001,275,14,185
2454.781,4.572688,-33.23631,-2.724601,-3.174711,-4.656271,1.441303,-0.02450108,223,26,233
2454.785,4.576594,-2.806004,27.94033,-12.88559,-4.833105,1.801362,0.2822951,188,113,82
2454.789,4.5805,0.1580173,25.63711,-10.76912,-3.228817,1.65116,-0.3589941,288,117,117
2454.793,4.584406,-6.780379,1.000776,-15.17445,-0.6125271,1.097222,-0.257794,292,47,149
2454.797,4.588313,1.833958,-13.63258,-16.29494,1.459412,1.281513,0.2407498,219,37,194
2454.801,4.592219,6.766014,-5.161899,-10.54885,0.4814995,1.788579,0.7978831,225,78,191
2454.805,4.596125,-8.523358,1.340753,0.04309563,-0.4207795,2.299906,1.848234,279,77,120
2454.809,4.600031,-20.14002,-26.56606,5.837064,0.1395496,2.593919,2.767557,306,62,110
2454.812,4.603938,-19.35951,-25.39769,4.912902,0.6796387,2.132659,2.246643,268,81,190
2454.816,4.607844,-11.75074,3.462016,1.106121,1.020523,2.062352,1.706554,185,101,164
2454.82,4.61175,-9.47625,18.55985,0.9385271,1.321993,2.322276,1.625594,173,131,125
2454.824,4.615656,-11.08037,25.7233,-2.710236,1.06846,2.31482,1.809884,239,20,117
2454.828,4.619563,-12.14818,29.41995,-6.517017,0.5123922,2.192314,2.141182,293,67,208
2454.832,4.623469,-10.3238,29.80302,-6.05733,0.001065264,2.139051,2.793123,197,26,213
2454.836,4.627375,-6.378153,25.91484,-4.793192,-0.5795039,2.090049,3.610181,206,104,140
2454.84,4.631281,-5.573701,20.11129,-4.726154,-1.300688,2.059156,3.984089,228,150,127
2454.844,4.635188,-8.734048,20.56619,-5.549759,-1.83119,1.948369,3.595267,273,78,173
2454.848,4.639094,-11.12346,23.98032,-6.842628,-2.53959,1.783253,3.051983,189,54,194
2454.852,4.643,-11.53526,24.033,-7.532158,-3.347061,1.585113,2.593919,216,118,146
2454.855,4.646906,-10.49139,18.78491,-7.283161,-3.911651,1.423193,2.196575,250,142,121
2454.859,4.650813,-9.787496,5.238513,-6.818686,-4.104464,1.328385,1.705488,293,42,119
2454.863,4.654719,-10.18493,-5.731719,-5.468357,-3.974502,1.419997,1.48924,192,64,199
2454.867,4.658625,-10.89841,-9.931148,-3.758897,-3.547331,1.439172,1.419997,182,102,210
2454.871,4.662531,-11.71722,-8.628703,-3.89776,-2.808037,1.348625,1.381648,179,103,133
2454.875,4.666438,-12.63181,-5.018247,-3.691859,-1.639442,1.14729,1.345429,292,54,102
2454.879,4.670344,-11.76511,-4.582502,-3.98874,-0.741424,0.9374327,1.28897,232,53,226
2454.883,4.67425,-9.414001,-5.324704,-4.34787,0.112918,0.8053399,1.119593,183,117,185
2454.887,4.678156,-7.321469,-5.12838,-4.13718,0.8586031,0.7499462,0.850081,193,104,141
2454.891,4.682063,-6.325481,-2.686294,-3.284845,1.652225,0.7158577,0.5709817,229,65,119
2454.895,4.685969,-6.488286,-0.04309563,-3.533842,2.063417,0.7659251,0.5028048,237,31,218
2454.898,4.689875,-7.249643,3.141193,-3.543418,2.238121,0.8159926,0.5134575,186,66,187
2454.902,4.693781,-8.590396,6.186617,-3.347094,2.178466,0.8362326,0.5571333,187,121,154
2454.906,4.697688,-10.08917,8.561665,-3.926491,1.928129,0.8522115,0.5635249,249,96,138
2454.91,4.701594,-12.7994,9.864111,-3.730166,1.543568,0.8543421,0.4751079,280,78,166
2454.914,4.7055,-14.73392,9.404424,-3.500323,1.421063,0.7882957,0.40267,196,24,213
2454.918,4.709406,-15.79215,8.039729,-3.050213,1.374191,0.6998787,0.4079963,162,126,200
2454.922,4.713313,-15.50485,6.315904,-2.442086,1.331581,0.6008091,0.4623248,259,142,124
2454.926,4.717219,-13.13459,4.22816,-2.681506,1.301753,0.5038701,0.5795039,232,97,132
2454.93,4.721125,-10.817,4.022259,-3.083732,1.143029,0.46339,0.6796387,253,65,214
2454.934,4.725031,-9.184158,5.181052,-3.428497,0.9012137,0.4612595,0.7382283,200,151,180
2454.938,4.728938,-8.714894,6.569689,-3.193865,0.6593987,0.4751079,0.7957525,214,120,132
2454.941,4.732844,-9.706094,7.029376,-2.542642,0.3984089,0.4804343,0.8564726,260,20,144
2454.945,4.73675,-10.97981,6.200982,-2.178724,0.2503371,0.4356932,0.8159926,272,60,213
2454.949,4.740656,-11.88003,5.521029,-1.843535,0.09480853,0.4005394,0.7115966,204,54,229
2454.953,4.744563,-12.15297,4.903325,-1.441309,-0.06924219,0.370712,0.6338323,205,96,133
2454.957,4.748469,-11.82257,4.185065,-1.11091,-0.1821602,0.3323625,0.6103965,226,107,155
2454.961,4.752375,-11.04206,3.122039,-0.9002198,-0.221575,0.3014698,0.624245,273,84,201
2454.965,4.756281,-10.64941,2.470816,-0.6943185,-0.1800297,0.2812298,0.6359629,178,61,182
2454.969,4.760188,-10.25676,1.987187,-0.3974375,-0.07989483,0.2588593,0.6348976,173,172,131
2454.973,4.764094,-9.825804,1.565808,-0.1436521,0.05432849,0.2343582,0.608266,248,138,154
2454.977,4.768,-9.155427,0.8236054,0.1149217,0.2514024,0.2087918,0.5368933,227,56,132
2454.98,4.771906,-8.781932,0.4453215,0.5315128,0.3920173,0.1992044,0.46339,190,61,207
2454.984,4.775813,-8.513781,0.2154781,0.9002198,0.5251754,0.1874865,0.3749731,153,118,160
2454.988,4.779719,-8.585607,0.248997,1.268927,0.660464,0.1821602,0.2769688,206,152,143
2454.992,4.783625,-8.863335,0.4692635,1.312023,0.7882957,0.1619202,0.1981392,259,76,131
2454.996,4.787531,-9.490615,1.154005,1.316811,0.9214537,0.169377,0.1725728,232,78,236
2455,4.791438,-9.821015,1.790863,1.273715,0.9768475,0.1768339,0.201335,160,120,225
2455.004,4.795344,-10.13226,2.571373,1.11091,0.9896307,0.1778992,0.2364887,189,121,137
2455.008,4.79925,-10.20888,3.605668,1.053449,0.9629991,0.1896171,0.2556635,301,121,100
2455.012,4.803156,-10.33337,4.707,0.8571242,0.882039,0.1768339,0.2322276,232,46,195
2455.016,4.807063,-10.34295,5.425261,0.4405331,0.7872304,0.1747034,0.1970739,187,96,209
2455.02,4.810969,-10.24239,5.841852,-0.009576807,0.6838998,0.1576591,0.1938781,224,128,130
2455.023,4.814875,-9.940725,5.928043,-0.3878607,0.5709817,0.149137,0.2343582,237,158,166
2455.027,4.818781,-9.744401,5.463568,-0.6129156,0.4111921,0.1246359,0.3067962,253,71,214
2455.031,4.822688,-9.773131,4.620809,-0.7326257,0.2993393,0.1193096,0.3472762,171,53,207
2455.035,4.826594,-10.10353,3.251326,-0.6703765,0.2098571,0.1161138,0.3802994,183,141,188
2455.039,4.8305,-10.49618,1.795651,-0.6607997,0.1629855,0.1182444,0.3952131,259,109,117
2455.043,4.834406,-10.62068,0.4932055,-0.6464344,0.1533981,0.1267665,0.3834952,238,46,131
2455.047,4.838313,-10.50576,-0.6607997,-0.4118027,0.2130529,0.1299623,0.3376888,199,6,193
2455.051,4.842219,-10.27591,-0.9097966,-0.02394202,0.294013,0.1363538,0.2918825,189,126,208
2455.055,4.846125,-9.983821,-0.8044518,0.320823,0.3941478,0.144876,0.257794,159,155,145
2455.059,4.850031,-9.892841,-0.4501099,0.7422025,0.4942827,0.1597897,0.2471413,248,32,134
2455.062,4.853938,-9.916783,0.5554548,1.235408,0.6018744,0.165116,0.2844256,252,55,222
2455.066,4.857844,-9.955091,1.28808,1.106121,0.6231797,0.1885518,0.3270362,147,66,182
2455.07,4.86175,-9.993398,1.771709,1.599327,0.6274408,0.2002697,0.3579289,157,95,126
2455.074,4.865656,-9.983821,2.183512,1.551443,0.6210492,0.2151834,0.3877563,261,123,148
2455.078,4.869563,-9.902418,2.451662,1.747767,0.5763081,0.2386192,0.3952131,262,44,205
2455.082,4.873469,-9.782708,2.5187,1.805228,0.531567,0.2588593,0.3824299,193,72,197
2455.086,4.877375,-9.648633,2.384625,1.819593,0.4814995,0.2812298,0.3749731,202,124,151
2455.09,4.881281,-9.557653,2.178724,1.80044,0.4410195,0.309992,0.3739078,263,103,133
2455.094,4.885188,-9.437943,1.929727,1.843535,0.4122573,0.3355583,0.3845605,267,45,152
2455.098,4.889094,-9.366117,1.766921,1.814805,0.3749731,0.3760383,0.4037352,265,36,191
2455.102,4.893,-9.303868,1.73819,1.805228,0.3483415,0.4122573,0.427171,172,134,190
2455.105,4.896906,-9.270349,1.73819,1.699883,0.3334278,0.4335626,0.4484763,174,113,163
2455.109,4.900813,-9.241618,1.776498,1.656788,0.3238404,0.46339,0.4676511,215,79,131
2455.113,4.904719,-9.279926,1.632846,1.58975,0.3195793,0.4878911,0.4814995,212,61,199
2455.117,4.908625,-9.299079,1.35033,1.441309,0.3323625,0.5145227,0.4868258,166,146,201
2455.121,4.912531,-9.289502,0.9672575,1.278504,0.3547331,0.5219796,0.4932174,159,157,144
2455.125,4.916438,-9.241618,0.7374141,1.067814,0.3813647,0.5528722,0.5060006,266,128,166
2455.129,4.920344,-9.346963,0.5123592,0.4692635,0.4186489,0.5667207,0.5241101,263,36,213
2455.133,4.92425,-9.548076,0.3974375,0.8858546,0.4708469,0.6040049,0.5528722,202,34,220
2455.137,4.928156,-9.840169,0.4979939,0.4453215,0.5091964,0.628506,0.5784386,190,152,167
2455.141,4.932063,-10.16578,0.6799533,0.3878607,0.5241101,0.644485,0.6018744,233,156,148
2455.145,4.935969,-10.36689,0.8092402,0.4453215,0.535828,0.6668555,0.6295713,265,56,134
2455.148,4.939875,-10.51533,0.8619126,0.4932055,0.5464807,0.6998787,0.6551376,195,76,226
2455.152,4.943781,-10.57758,0.7086837,0.4309563,0.5550028,0.7115966,0.6689861,176,131,202
2455.156,4.947688,-10.59195,0.6368576,0.5746084,0.5624596,0.7456851,0.6785734,173,98,108
2455.16,4.951594,-10.63504,0.641646,0.8523358,0.5699165,0.7680557,0.6817692,219,53,163
2455.164,4.9555,-10.63983,0.521936,1.029507,0.572047,0.8223841,0.6902914,253,47,195
2455.168,4.959406,-10.62547,0.5602432,1.221043,0.5858954,0.8404936,0.6998787,132,147,226
2455.172,4.963313,-10.56322,0.4836287,1.412579,0.5976133,0.8799084,0.7179882,168,152,124
2455.176,4.967219,-10.67814,0.5075708,1.728614,0.6072007,0.9150622,0.737163,243,55,160
2455.18,4.971125,-10.76912,0.4979939,1.94888,0.6167881,0.9470201,0.7563377,261,74,204
2455.184,4.975031,-10.86489,0.4932055,2.197877,0.6210492,0.9938917,0.7850999,173,30,209
2455.188,4.978938,-10.94629,0.4357447,2.48997,0.628506,1.036502,0.8159926,138,126,149
2455.191,4.982844,-10.96544,0.3830723,2.533065,0.6370281,1.06846,0.8479505,270,131,112
2455.195,4.98675,-10.99417,0.3303998,2.715025,0.6391587,1.115332,0.8788432,278,60,221
2455.199,4.990656,-11.13304,0.7278373,3.720589,0.6253102,1.170726,0.9182579,165,74,206
2455.203,4.994563,-11.28627,0.8523358,2.777274,0.6114618,1.190966,0.9491506,155,149,191
2455.207,4.998469,-11.21444,0.8619126,3.045425,0.5890912,1.253816,0.9843043,280,150,142
2455.211,5.002375,-11.05642,0.6991069,2.580949,0.5592638,1.30921,1.035437,262,80,156
2455.215,5.006281,-11.09473,0.7230489,2.700659,0.5038701,1.393366,1.079113,269,66,205
2455.219,5.010188,-11.20486,0.8379706,2.48997,0.4569984,1.443433,1.082309,160,169,180
2455.223,5.014094,-11.55442,0.9097966,2.178724,0.4133226,1.486044,1.084439,167,133,122
2455.227,5.018,-11.85609,0.8283938,2.284068,0.386691,1.524393,1.113201,199,74,133
2455.23,5.021906,-11.91834,0.5363012,2.03986,0.3824299,1.561678,1.165399,255,88,213
2455.234,5.025813,-11.77468,0.1771709,1.94888,0.3621899,1.627724,1.231446,171,162,223
2455.238,5.029719,-11.61667,0.1388637,1.762132,0.3483415,1.660747,1.259143,187,99,115
2455.242,5.033625,-11.37725,0.1628057,1.666364,0.3451457,1.71188,1.283644,259,130,158
2455.246,5.037531,-11.31979,0.1340753,1.37906,0.3611246,1.744903,1.308145,238,51,197
2455.25,5.041438,-11.18571,0.06703765,1.28808,0.3632552,1.805623,1.348625,177,80,213
2455.254,5.045344,-11.12825,0.2777274,1.144428,0.3536678,1.85356,1.377387,190,158,145
2455.258,5.04925,-11.1905,0.4979939,1.077391,0.3451457,1.883388,1.398692,236,165,156
2455.262,5.053156,-11.35809,0.6560113,0.9193734,0.3557983,1.920672,1.426389,232,95,144
2455.266,5.057063,-11.55921,0.7038953,0.9528923,0.3728426,1.961152,1.457282,173,65,216
2455.27,5.060969,-11.80341,0.56982,0.9528923,0.390952,1.987783,1.495631,160,152,226
2455.273,5.064875,-11.89439,0.2873042,0.9097966,0.4261058,2.011219,1.527589,150,141,127
2455.277,5.068781,-12.13381,0.07661445,0.9289502,0.459129,2.039981,1.559547,236,104,200
2455.281,5.072688,-12.43548,0.04788403,0.866701,0.4974785,2.070874,1.582983,227,29,239
2455.285,5.076594,-12.81856,-0.05267244,1.067814,0.5496764,2.098571,1.609615,191,150,216
2455.289,5.0805,-13.05798,-0.3591302,0.7565677,0.6008091,2.123072,1.627724,165,159,143
2455.293,5.084406,-13.25909,-0.7900865,1.01993,0.6551376,2.135855,1.649029,245,150,162
2455.297,5.088313,-13.39316,-1.16837,1.331176,0.7222493,2.161422,1.674596,230,49,237
2455.301,5.092219,-13.6278,-1.608904,1.374272,0.7872304,2.177401,1.710815,190,96,227
2455.305,5.096125,-13.59428,-1.929727,1.944092,0.84582,2.227468,1.741707,169,148,169
2455.309,5.100031,-13.85285,-1.532289,2.331952,0.8681905,2.281796,1.760882,243,169,168
2455.312,5.103938,-14.36042,-0.3351882,3.562572,0.813862,2.362757,1.757686,210,40,210
2455.316,5.107844,-15.16487,0.7900865,4.290409,0.7329019,2.440521,1.750229,180,102,218
2455.32,5.11175,-16.55351,0.05267244,3.830723,0.648746,2.479936,1.748099,205,175,216
2455.324,5.115656,-18.28212,-2.75812,3.840299,0.6551376,2.459696,1.744903,248,116,166
2455.328,5.119563,-19.92455,-5.664681,3.974375,0.7233146,2.441586,1.73212,229,85,159
2455.332,5.123469,-21.13601,-7.714118,3.878607,0.8362326,2.398976,1.720402,244,95,224
2455.336,5.127375,-21.80639,-9.868899,3.940856,1.092961,2.310559,1.765143,184,195,208
2455.34,5.131281,-21.90695,-11.05163,4.266467,1.34756,2.249838,1.83119,173,163,159
2455.344,5.135188,-21.86385,-11.75074,5.583278,1.611745,2.196575,1.89404,286,75,160
2455.348,5.139094,-21.95962,-12.05241,6.885724,1.882322,2.15503,1.953695,212,109,261
2455.352,5.143,-21.87343,-12.19606,8.647856,2.231729,2.081527,2.022937,198,136,219
2455.355,5.146906,-21.60528,-11.58315,9.859322,2.463957,2.045308,2.05596,193,194,170
2455.359,5.150813,-21.01151,-9.667786,9.859322,2.494849,2.005893,2.038916,259,196,135
2455.363,5.154719,-20.08735,-6.330269,7.900865,2.41602,1.984588,1.970739,276,101,194
2455.367,5.158625,-18.27255,-2.533065,5.779603,2.213619,1.945173,1.897236,167,92,213
2455.371,5.162531,-14.56632,2.485181,2.140416,1.920672,2.03572,1.870604,204,187,147
2455.375,5.166438,-12.19606,5.57849,-0.7900865,1.614941,2.229598,1.837581,254,158,186
2455.379,5.170344,-10.78827,7.680599,-2.537854,1.280448,2.459696,1.763013,247,158,166
2455.383,5.17425,-10.57279,9.064447,-3.20823,1.080178,2.67701,1.6714,239,112,232
2455.387,5.178156,-11.77468,10.54406,-2.983175,1.026915,2.849582,1.639442,177,190,178
2455.391,5.182063,-13.76666,11.49696,-3.093309,1.085504,2.941195,1.756621,156,183,154
2455.395,5.185969,-15.91186,12.25352,-5.027823,1.100418,2.994458,1.963282,274,123,198
2455.398,5.189875,-18.57422,11.74595,-5.999869,0.9683254,3.00085,2.142247,223,136,233
2455.402,5.193781,-21.0163,10.93671,-5.094861,0.7424893,2.941195,2.244512,161,190,241
2455.406,5.197688,-21.96919,10.4052,-4.639963,0.5805691,2.824016,2.220011,175,211,169
2455.41,5.201594,-22.07933,9.950302,-4.563348,0.4154531,2.684466,2.115615,240,179,225
2455.414,5.2055,-21.41374,9.495404,-4.687847,0.2396845,2.518285,1.964348,247,151,249
2455.418,5.209406,-20.11608,8.829816,-5.808333,0.1225054,2.339321,1.793905,211,103,245
2455.422,5.213313,-17.61654,7.465121,-6.924031,0.05219796,2.102832,1.587244,207,180,136
2455.426,5.217219,-15.61498,6.119579,-7.76679,0.08735168,1.951564,1.463673,224,167,162
2455.43,5.221125,-13.93904,4.984728,-8.010999,0.1470065,1.818406,1.365669,264,151,149
2455.434,5.225031,-13.00052,4.218583,-8.69574,0.221575,1.702293,1.276187,209,180,236
2455.438,5.228938,-12.29662,4.242525,-7.991845,0.3249057,1.568069,1.134507,181,147,250
2455.441,5.232844,-12.20564,4.812345,-7.297527,0.4442153,1.411475,1.029045,201,204,193
2455.445,5.23675,-11.96622,5.506664,-5.109226,0.5464807,1.212271,0.9619338,247,154,171
2455.449,5.240656,-11.61667,6.406884,-3.533842,0.6274408,0.9619338,0.9406285,246,143,246
2455.453,5.244563,-10.79785,6.861782,-2.944868,0.644485,0.7041398,0.9576727,168,204,243
2455.457,5.248469,-10.02692,6.943185,-2.834735,0.6072007,0.4079963,0.9960222,181,201,161
2455.461,5.252375,-9.313444,6.933608,-3.169923,0.5454154,0.2141182,1.020523,269,97,187
2455.465,5.256281,-8.652645,6.813898,-3.375824,0.4729774,0.05326322,1.02585,216,131,253
2455.469,5.260188,-8.020576,6.919243,-2.643199,0.370712,-0.09800433,1.002414,189,168,271
2455.473,5.264094,-7.422025,6.914454,-1.244985,0.1576591,-0.3185141,0.9544769,171,198,178
2455.477,5.268,-6.919243,6.876147,-0.3734955,-0.03515373,-0.4910869,0.9171927,277,185,186
2455.48,5.271906,-6.402095,7.015011,0.07661445,-0.237554,-0.6679208,0.8671253,231,151,214
2455.484,5.275813,-5.861006,6.890512,0.2106897,-0.4218447,-0.8543421,0.7925567,181,121,240
2455.488,5.279719,-5.171476,6.363788,0.1053449,-0.5944176,-1.091896,0.6743124,188,195,268
2455.492,5.283625,-4.783615,5.722142,0.05746084,-0.6860303,-1.262338,0.5826996,260,187,145
2455.496,5.287531,-4.539406,4.88896,-0.03351882,-0.7595335,-1.423193,0.4857606,251,133,163
2455.5,5.291438,-4.376601,3.89776,-0.04788403,-0.813862,-1.571265,0.3472762,250,99,195
2455.504,5.295344,-4.194641,2.906561,-0.06224924,-0.8490158,-1.721467,0.1704423,181,212,262
