t_native_s,t_opt_s,ax,ay,az,gx,gy,gz,mx,my,mz
2453.039,-3.125e-05,-9.730036,-0.04309563,-0.02873042,0.1800297,-0.02024002,0.02024002,897,-665,479
2453.043,0.003875,-9.706094,-0.09097966,-0.08140286,0.1842907,-0.01704423,0.01597897,909,-611,474
2453.047,0.00778125,-9.749189,-0.1244985,-0.08140286,0.1885518,-0.0149137,0.01171791,921,-646,525
2453.051,0.0116875,-9.71567,-0.1101333,-0.1292869,0.1874865,-0.01278317,0.00958738,893,-633,453
2453.055,0.01559375,-9.672575,-0.08140286,-0.07661445,0.1917476,-0.01278317,0.006391587,893,-642,494
2453.059,0.0195,-9.763554,-0.05746084,-0.1101333,0.1938781,-0.01065264,0.003195793,862,-635,520
2453.062,0.02340625,-9.77792,-0.04788403,-0.1101333,0.1938781,-0.008522115,0.002130529,883,-663,498
2453.066,0.0273125,-9.801862,-0.02873042,-0.07182605,0.1917476,-0.00958738,-0.001065264,901,-604,479
2453.07,0.03121875,-9.77792,-0.05746084,-0.07182605,0.1928129,-0.004261058,-0.003195793,874,-625,508
2453.074,0.035125,-9.825804,-0.04309563,-0.1053449,0.1885518,-0.002130529,-0.005326322,906,-606,467
2453.078,0.03903125,-9.864111,-0.02873042,-0.08140286,0.1864213,-0.005326322,-0.007456851,850,-617,471
2453.082,0.0429375,-9.792285,-0.08619126,-0.08619126,0.1832255,-0.003195793,-0.007456851,879,-646,465
2453.086,0.04684375,-9.801862,-0.04788403,-0.09097966,0.1757686,-0.008522115,-0.01065264,879,-668,472
2453.09,0.05075,-9.763554,-0.02394202,-0.04788403,0.169377,-0.007456851,-0.0149137,896,-645,496
2453.094,0.05465625,-9.744401,0.03830723,-0.009576807,0.1619202,-0.01065264,-0.01384844,886,-608,472
2453.098,0.0585625,-9.77792,0.02394202,-0.07182605,0.1565939,-0.00958738,-0.01704423,895,-646,491
2453.102,0.06246875,-9.71567,0.1053449,-0.03351882,0.1480718,-0.01171791,-0.01597897,882,-629,469
2453.105,0.066375,-9.744401,0.1053449,-0.04309563,0.1384844,-0.01065264,-0.01704423,902,-639,440
2453.109,0.07028125,-9.753978,0.1197101,0.009576807,0.1310275,-0.00958738,-0.0181095,921,-638,476
2453.113,0.0741875,-9.696517,0.1580173,-0.01436521,0.1225054,-0.005326322,-0.0181095,911,-617,457
2453.117,0.07809375,-9.691728,0.1628057,-0.01915361,0.1139833,-0.006391587,-0.0181095,865,-589,448
2453.121,0.082,-9.691728,0.1819593,-0.02394202,0.1033307,-0.002130529,-0.01597897,860,-652,474
2453.125,0.08590625,-9.691728,0.2202666,0.01436521,0.09374327,-0.006391587,-0.01917476,899,-676,500
2453.129,0.0898125,-9.634267,0.248997,-0.02394202,0.08415589,-0.006391587,-0.0181095,887,-606,502
2453.133,0.09371875,-9.667786,0.2346318,-0.04309563,0.07350325,0,-0.01704423,899,-642,498
2453.137,0.097625,-9.662998,0.2394202,-0.08619126,0.0628506,0.002130529,-0.0181095,917,-618,489
2453.141,0.1015313,-9.658209,0.2537854,-0.07182605,0.05219796,0.005326322,-0.01917476,918,-628,483
2453.145,0.1054375,-9.691728,0.225055,-0.07661445,0.04154531,0.004261058,-0.01917476,893,-621,522
2453.148,0.1093438,-9.706094,0.225055,-0.08619126,0.03195793,0.005326322,-0.02024002,910,-631,501
2453.152,0.11325,-9.734824,0.2154781,-0.1532289,0.02130529,0.004261058,-0.02343582,918,-652,481
2453.156,0.1171563,-9.749189,0.1915361,-0.1292869,0.01065264,0.008522115,-0.02130529,877,-583,498
2453.16,0.1210625,-9.734824,0.1628057,-0.1915361,0.003195793,0.00958738,-0.02237055,858,-659,482
2453.164,0.1249688,-9.753978,0.1244985,-0.248997,-0.008522115,0.008522115,-0.02343582,898,-640,503
2453.168,0.128875,-9.749189,0.08140286,-0.1915361,-0.01917476,0.01065264,-0.02343582,888,-606,498
2453.172,0.1327813,-9.80665,0.1005565,-0.2106897,-0.02556635,0.0149137,-0.02663161,894,-636,467
2453.176,0.1366875,-9.739612,0.03351882,-0.2394202,-0.03195793,0.01384844,-0.02876214,874,-630,510
2453.18,0.1405938,-9.758766,0.01436521,-0.2585738,-0.03515373,0.0149137,-0.02769688,884,-642,492
2453.184,0.1445,-9.749189,-0.02394202,-0.320823,-0.03728426,0.0149137,-0.0330232,899,-663,481
2453.188,0.1484063,-9.782708,-0.08619126,-0.296881,-0.03515373,0.0181095,-0.03195793,848,-643,485
2453.191,0.1523125,-9.792285,-0.07661445,-0.2777274,-0.03728426,0.02024002,-0.03621899,876,-649,460
2453.195,0.1562188,-9.758766,-0.08619126,-0.2777274,-0.0330232,0.02130529,-0.03621899,912,-633,507
2453.199,0.160125,-9.773131,-0.09576807,-0.2537854,-0.0298274,0.02130529,-0.03621899,921,-623,485
2453.203,0.1640313,-9.749189,-0.06703765,-0.272939,-0.02876214,0.02556635,-0.03621899,912,-628,476
2453.207,0.1679375,-9.763554,-0.09576807,-0.2202666,-0.02130529,0.02450108,-0.03621899,885,-664,481
2453.211,0.1718438,-9.744401,-0.1149217,-0.2202666,-0.01704423,0.02130529,-0.0330232,887,-659,474
2453.215,0.17575,-9.744401,-0.06703765,-0.2202666,-0.00958738,0.02130529,-0.03195793,862,-661,500
2453.219,0.1796563,-9.720459,-0.09097966,-0.1436521,-0.005326322,0.01917476,-0.02769688,874,-641,504
2453.223,0.1835625,-9.739612,-0.1149217,-0.1915361,0.001065264,0.0181095,-0.02663161,886,-638,488
2453.227,0.1874688,-9.744401,-0.1053449,-0.1244985,0.007456851,0.02024002,-0.02343582,880,-635,501
2453.23,0.191375,-9.706094,-0.1053449,-0.1340753,0.01597897,0.01917476,-0.02130529,874,-660,490
2453.234,0.1952813,-9.730036,-0.1197101,-0.1723825,0.02450108,0.01704423,-0.01917476,878,-619,485
2453.238,0.1991875,-9.773131,-0.1484405,-0.1292869,0.02663161,0.0181095,-0.01384844,883,-624,507
2453.242,0.2030938,-9.768343,-0.1244985,-0.1340753,0.03195793,0.01384844,-0.008522115,909,-670,506
2453.246,0.207,-9.763554,-0.1532289,-0.09097966,0.04048005,0.0149137,-0.007456851,877,-631,495
2453.25,0.2109063,-9.758766,-0.1723825,-0.06224924,0.04687164,0.01171791,-0.006391587,894,-646,489
2453.254,0.2148125,-9.749189,-0.1771709,-0.07182605,0.04900216,0.00958738,-0.004261058,916,-644,494
2453.258,0.2187188,-9.801862,-0.1675941,-0.08140286,0.05858954,0.003195793,-0.003195793,910,-652,514
2453.262,0.222625,-9.749189,-0.1580173,-0.1436521,0.06072007,0.002130529,-0.001065264,866,-638,491
2453.266,0.2265313,-9.734824,-0.1723825,-0.1436521,0.0660464,0,0,893,-581,479
2453.27,0.2304375,-9.758766,-0.1963245,-0.1388637,0.07137272,-0.003195793,0,874,-663,498
2453.273,0.2343438,-9.730036,-0.2106897,-0.2011129,0.07563377,-0.005326322,-0.003195793,871,-639,483
2453.277,0.23825,-9.80665,-0.2011129,-0.1580173,0.0809601,-0.006391587,-0.006391587,903,-651,485
2453.281,0.2421563,-9.71567,-0.2154781,-0.1963245,0.08415589,-0.006391587,-0.00958738,855,-630,467
2453.285,0.2460625,-9.768343,-0.2106897,-0.2011129,0.08735168,-0.004261058,-0.01384844,905,-636,484
2453.289,0.2499688,-9.758766,-0.2777274,-0.2298434,0.08841695,-0.004261058,-0.01704423,930,-608,484
2453.293,0.253875,-9.753978,-0.2777274,-0.225055,0.08948221,-0.002130529,-0.02024002,877,-645,529
2453.297,0.2577813,-9.753978,-0.2633622,-0.2394202,0.08948221,0.001065264,-0.02237055,925,-635,487
2453.301,0.2616875,-9.734824,-0.2825158,-0.2825158,0.08948221,0.003195793,-0.02663161,900,-651,488
2453.305,0.2655938,-9.758766,-0.2825158,-0.3160346,0.08735168,0.002130529,-0.0330232,915,-647,474
2453.309,0.2695,-9.739612,-0.3351882,-0.296881,0.08735168,-0.001065264,-0.03621899,865,-616,493
2453.312,0.2734063,-9.763554,-0.296881,-0.3591302,0.08415589,-0.001065264,-0.04154531,860,-627,491
2453.316,0.2773125,-9.80665,-0.296881,-0.2585738,0.07882957,-0.001065264,-0.04474111,905,-626,459
2453.32,0.2812188,-9.768343,-0.2777274,-0.3639187,0.07563377,0,-0.0479369,906,-647,500
2453.324,0.285125,-9.792285,-0.2537854,-0.3591302,0.07350325,-0.006391587,-0.05113269,870,-641,472
2453.328,0.2890313,-9.744401,-0.2633622,-0.3016694,0.07030745,-0.005326322,-0.05326322,885,-657,488
2453.332,0.2929375,-9.782708,-0.2873042,-0.3160346,0.06711166,-0.008522115,-0.05539375,880,-638,446
2453.336,0.2968438,-9.71567,-0.1723825,-0.3351882,0.06178534,-0.01171791,-0.05858954,894,-639,455
2453.34,0.30075,-9.71567,-0.1484405,-0.3016694,0.05858954,-0.01384844,-0.05965481,906,-651,475
2453.344,0.3046563,-9.710882,-0.1388637,-0.3256114,0.05539375,-0.01597897,-0.05858954,866,-645,523
2453.348,0.3085625,-9.658209,-0.08619126,-0.3639187,0.05113269,-0.01384844,-0.0628506,899,-631,525
2453.352,0.3124688,-9.629479,-0.08619126,-0.344765,0.04474111,-0.02024002,-0.0660464,954,-636,501
2453.355,0.316375,-9.653421,0.03351882,-0.344765,0.04367584,-0.02130529,-0.06924219,868,-668,500
2453.359,0.3202813,-9.572018,0.03351882,-0.3064578,0.04048005,-0.01917476,-0.07137272,887,-615,483
2453.363,0.3241875,-9.59596,0.1244985,-0.3303998,0.03621899,-0.02024002,-0.07456851,875,-634,515
2453.367,0.3280938,-9.605537,0.1053449,-0.3351882,0.03728426,-0.02343582,-0.07882957,899,-623,482
2453.371,0.332,-9.643844,0.1484405,-0.3399766,0.03621899,-0.02024002,-0.08309063,914,-643,473
2453.375,0.3359063,-9.576807,0.2346318,-0.3782839,0.03621899,-0.02343582,-0.08841695,900,-634,496
2453.379,0.3398125,-9.619902,0.2011129,-0.3734955,0.03408846,-0.03089267,-0.09267801,884,-663,517
2453.383,0.3437188,-9.56723,0.2346318,-0.3878607,0.03834952,-0.03728426,-0.09800433,953,-633,459
2453.387,0.347625,-9.591172,0.1819593,-0.3687071,0.03728426,-0.0479369,-0.1054612,902,-603,466
2453.391,0.3515313,-9.548076,0.2346318,-0.4453215,0.03728426,-0.05326322,-0.1075917,883,-617,495
2453.395,0.3554375,-9.543288,0.2633622,-0.4692635,0.03834952,-0.0628506,-0.1118528,873,-664,458
2453.398,0.3593438,-9.562441,0.2873042,-0.4979939,0.04048005,-0.07669904,-0.1171791,877,-644,469
2453.402,0.36325,-9.557653,0.2394202,-0.4884171,0.03941478,-0.08735168,-0.1214401,894,-616,521
2453.406,0.3671563,-9.562441,0.2442086,-0.5650316,0.03941478,-0.09693906,-0.1246359,893,-625,501
2453.41,0.3710625,-9.538499,0.3016694,-0.5650316,0.03834952,-0.108657,-0.1257012,883,-643,499
2453.414,0.3749688,-9.653421,0.2825158,-0.5506664,0.0330232,-0.1214401,-0.1257012,892,-597,457
2453.418,0.378875,-9.662998,0.3064578,-0.6033388,0.02876214,-0.1235707,-0.1225054,870,-666,487
2453.422,0.3827813,-9.749189,0.2346318,-0.6607997,0.01917476,-0.1299623,-0.1225054,890,-611,500
2453.426,0.3866875,-9.77792,0.2920926,-0.6751649,0.008522115,-0.1331581,-0.1182444,867,-638,484
2453.43,0.3905938,-9.83538,0.2059013,-0.6655881,-0.004261058,-0.1416802,-0.1139833,875,-647,505
2453.434,0.3945,-9.888053,0.1915361,-0.641646,-0.01704423,-0.1438107,-0.1097222,862,-634,474
2453.438,0.3984063,-9.931148,0.1292869,-0.7086837,-0.03089267,-0.1427454,-0.1022654,893,-668,461
2453.441,0.4023125,-9.940725,0.07661445,-0.7374141,-0.04367584,-0.1416802,-0.09693906,892,-627,489
2453.445,0.4062188,-9.883264,-0.03830723,-0.7086837,-0.06072007,-0.1352886,-0.08948221,892,-602,499
2453.449,0.410125,-9.849746,-0.05267244,-0.7182605,-0.07563377,-0.1342233,-0.08202536,850,-638,476
2453.453,0.4140313,-9.878476,-0.04788403,-0.7422025,-0.08522115,-0.1320928,-0.07882957,888,-625,451
2453.457,0.4179375,-9.892841,-0.1580173,-0.7900865,-0.09693906,-0.1235707,-0.07137272,823,-641,480
2453.461,0.4218438,-9.878476,-0.1628057,-0.7900865,-0.108657,-0.1150486,-0.06924219,890,-636,481
2453.465,0.42575,-9.83538,-0.1628057,-0.8092402,-0.1139833,-0.1097222,-0.06391587,946,-638,448
2453.469,0.4296563,-9.844957,-0.2202666,-0.7852981,-0.1203749,-0.1097222,-0.0628506,921,-632,495
2453.473,0.4335625,-9.830592,-0.1484405,-0.8092402,-0.1235707,-0.1075917,-0.06391587,910,-644,510
2453.477,0.4374688,-9.840169,-0.1628057,-0.794875,-0.1257012,-0.108657,-0.05965481,913,-674,502
2453.48,0.441375,-9.873688,-0.09097966,-0.8140286,-0.1267665,-0.112918,-0.06178534,897,-633,494
2453.484,0.4452813,-9.868899,-0.05746084,-0.7565677,-0.1267665,-0.1150486,-0.05965481,934,-652,476
2453.488,0.4491875,-9.811438,-0.04788403,-0.818817,-0.1246359,-0.1171791,-0.05965481,884,-624,489
2453.492,0.4530938,-9.840169,-0.01915361,-0.7422025,-0.1235707,-0.1257012,-0.06072007,906,-604,466
2453.496,0.457,-9.797073,0.004788403,-0.8092402,-0.1235707,-0.1320928,-0.06178534,893,-616,492
2453.5,0.4609063,-9.811438,0.03351882,-0.7565677,-0.1171791,-0.1352886,-0.06178534,885,-620,448
2453.504,0.4648125,-9.701305,0.06224924,-0.7038953,-0.1139833,-0.1438107,-0.06391587,881,-660,510
2453.508,0.4687188,-9.744401,0.1340753,-0.7469909,-0.1043959,-0.1480718,-0.06817692,887,-646,477
2453.512,0.472625,-9.758766,0.2011129,-0.6943185,-0.1001349,-0.1470065,-0.07350325,897,-610,492
2453.516,0.4765313,-9.720459,0.2202666,-0.7230489,-0.0958738,-0.1416802,-0.07669904,902,-660,501
2453.52,0.4804375,-9.710882,0.2920926,-0.7517793,-0.09267801,-0.1406149,-0.07989483,923,-618,514
2453.523,0.4843438,-9.701305,0.3495534,-0.7900865,-0.08948221,-0.1342233,-0.08309063,891,-644,468
2453.527,0.48825,-9.658209,0.3974375,-0.7709329,-0.08948221,-0.1320928,-0.08948221,920,-655,501
2453.531,0.4921563,-9.691728,0.4836287,-0.8140286,-0.08948221,-0.1299623,-0.09161274,913,-628,462
2453.535,0.4960625,-9.662998,0.5506664,-0.7805097,-0.08948221,-0.1299623,-0.0958738,908,-649,502
2453.539,0.4999688,-9.639056,0.5841852,-0.7661445,-0.09161274,-0.128897,-0.09693906,917,-629,498
2453.543,0.503875,-9.744401,0.6703765,-0.8283938,-0.09374327,-0.1342233,-0.1012001,938,-635,521
2453.547,0.5077813,-9.68694,0.6895301,-0.7996634,-0.09374327,-0.1374191,-0.1022654,884,-612,464
2453.551,0.5116875,-9.68694,0.7661445,-0.8475474,-0.09374327,-0.1416802,-0.1001349,901,-650,504
2453.555,0.5155938,-9.701305,0.8092402,-0.8858546,-0.08948221,-0.149137,-0.09906959,897,-610,477
2453.559,0.5195,-9.653421,0.8954314,-0.9097966,-0.08309063,-0.1480718,-0.0958738,862,-626,507
2453.562,0.5234063,-9.662998,0.9768343,-0.8523358,-0.07989483,-0.1480718,-0.09267801,874,-648,487
2453.566,0.5273125,-9.634267,0.9864111,-0.866701,-0.07456851,-0.1470065,-0.08628642,911,-613,490
2453.57,0.5312188,-9.615114,1.091756,-0.8523358,-0.06498113,-0.144876,-0.0777643,910,-625,497
2453.574,0.535125,-9.653421,1.235408,-0.8283938,-0.05645902,-0.1459412,-0.0660464,895,-602,491
2453.578,0.5390313,-9.624691,1.359907,-0.7996634,-0.04687164,-0.1470065,-0.05432849,893,-620,508
2453.582,0.5429375,-9.576807,1.37906,-0.7374141,-0.03621899,-0.1555286,-0.04261058,921,-618,475
2453.586,0.5468438,-9.624691,1.541866,-0.7374141,-0.02450108,-0.1629855,-0.02130529,881,-637,453
2453.59,0.55075,-9.59596,1.623269,-0.6703765,-0.01384844,-0.1704423,-0.002130529,889,-644,506
2453.594,0.5546563,-9.605537,1.747767,-0.5985504,-0.004261058,-0.1768339,0.01597897,900,-626,502
2453.598,0.5585625,-9.624691,1.833958,-0.5315128,0.01065264,-0.1864213,0.04261058,902,-639,510
2453.602,0.5624688,-9.691728,1.924938,-0.4692635,0.02343582,-0.1885518,0.06391587,867,-605,479
2453.605,0.566375,-9.710882,1.987187,-0.3687071,0.03408846,-0.1906823,0.08522115,881,-633,472
2453.609,0.5702813,-9.730036,2.121263,-0.2825158,0.0479369,-0.1992044,0.1043959,888,-638,460
2453.613,0.5741875,-9.787496,2.260126,-0.1628057,0.05645902,-0.1981392,0.1331581,899,-631,486
2453.617,0.5780938,-9.811438,2.389413,-0.08619126,0.06498113,-0.1970739,0.1565939,904,-604,500
2453.621,0.582,-9.830592,2.509123,-0.04309563,0.06924219,-0.1960087,0.1757686,903,-657,466
2453.625,0.5859063,-9.878476,2.671929,0.03351882,0.06817692,-0.1885518,0.201335,890,-634,458
2453.629,0.5898125,-9.840169,2.844312,0.1867477,0.06391587,-0.1800297,0.2343582,911,-633,470
2453.633,0.5937188,-9.974244,2.992752,0.3543418,0.05219796,-0.1747034,0.2599245,891,-631,478
2453.637,0.597625,-10.14184,3.203442,0.3543418,0.04154531,-0.1597897,0.2886867,892,-648,500
2453.641,0.6015313,-10.27591,3.39019,0.4261679,0.02769688,-0.1352886,0.3131877,900,-638,478
2453.645,0.6054375,-10.52491,3.634398,0.56982,0.002130529,-0.1107875,0.3462109,902,-662,500
2453.648,0.6093438,-10.69729,3.763685,0.7326257,-0.02237055,-0.1022654,0.3685815,909,-659,468
2453.652,0.61325,-10.79306,3.983952,0.890643,-0.05006743,-0.1001349,0.390952,871,-638,480
2453.656,0.6171563,-10.80743,4.127604,1.072602,-0.08628642,-0.1161138,0.4133226,870,-620,483
2453.66,0.6210625,-10.64462,4.390966,1.163582,-0.1459412,-0.1597897,0.4452805,899,-630,516
2453.664,0.6249688,-10.27113,4.601656,1.187524,-0.2034655,-0.2205097,0.4740427,880,-637,477
2453.668,0.628875,-9.801862,4.759673,1.292869,-0.273773,-0.298274,0.5102617,867,-627,475
2453.672,0.6327813,-9.390059,5.00867,1.268927,-0.3483415,-0.3813647,0.5581986,879,-653,483
2453.676,0.6366875,-8.896853,5.33907,1.144428,-0.4463458,-0.4516721,0.6370281,888,-607,504
2453.68,0.6405938,-8.738836,5.631162,0.9816227,-0.5060006,-0.4676511,0.7020093,885,-655,471
2453.684,0.6445,-8.671798,5.913678,0.8571242,-0.5539375,-0.4548679,0.7659251,862,-606,449
2453.688,0.6484063,-8.384494,6.234501,0.7565677,-0.6029397,-0.4410195,0.8383631,886,-650,509
2453.691,0.6523125,-7.709329,6.502652,0.8092402,-0.6593987,-0.4495416,0.9544769,927,-656,470
2453.695,0.6562188,-6.995857,6.813898,0.9768343,-0.7137272,-0.4846953,1.050351,919,-625,481
2453.699,0.660125,-6.196194,7.086837,1.163582,-0.773382,-0.5432849,1.14942,882,-646,470
2453.703,0.6640313,-5.123592,7.374141,1.335965,-0.8341021,-0.6157228,1.266599,903,-617,478
2453.707,0.6679375,-3.873818,7.97748,0.009576807,-0.9054748,-0.6870956,1.441303,899,-656,482
2453.711,0.6718438,-3.576937,8.33661,-1.838747,-0.9459548,-0.5890912,1.576591,883,-604,482
2453.715,0.67575,-3.53863,8.552088,-3.337517,-0.9598033,-0.3249057,1.694836,892,-655,510
2453.719,0.6796563,-4.060566,8.63828,-4.563348,-0.9502159,0.05006743,1.788579,920,-610,453
2453.723,0.6835625,-5.530606,8.700529,-5.66947,-0.9534117,0.5965481,1.890844,868,-635,458
2453.727,0.6874688,-7.029376,8.451532,-5.808333,-1.002414,0.9480853,1.940912,900,-630,493
2453.73,0.691375,-8.628703,8.09719,-5.33907,-1.095092,1.182444,1.975,870,-606,464
2453.734,0.6952813,-10.0748,7.522582,-4.932055,-1.236772,1.294296,1.999501,862,-629,466
2453.738,0.6991875,-11.66934,6.430826,-3.916914,-1.45089,1.285774,2.001632,910,-629,475
2453.742,0.7030938,-12.40675,5.635951,-3.169923,-1.616006,1.188835,1.971804,880,-656,498
2453.746,0.707,-12.97657,4.76925,-2.585738,-1.773665,1.062069,1.922802,884,-645,472
2453.75,0.7109063,-13.26388,3.912126,-1.747767,-1.880192,0.9076053,1.861017,891,-649,459
2453.754,0.7148125,-13.54639,3.136404,-0.7086837,-1.989914,0.6551376,1.770469,876,-671,484
2453.758,0.7187188,-13.76187,2.164358,0.2585738,-2.047438,0.4442153,1.703358,847,-670,511
2453.762,0.722625,-13.74272,1.225831,1.16837,-2.059156,0.2567287,1.641572,860,-662,471
2453.766,0.7265313,-13.44584,0.5793968,1.92015,-2.018676,0.1427454,1.59257,843,-653,501
2453.77,0.7304375,-12.80419,0.4309563,2.178724,-1.968609,0.1278317,1.538242,880,-648,469
2453.773,0.7343438,-12.50731,0.5267244,2.346318,-1.933455,0.1832255,1.522263,885,-655,438
2453.777,0.73825,-12.55998,0.5841852,2.676717,-1.854625,0.2290319,1.528654,871,-625,506
2453.781,0.7421563,-12.63181,0.617704,3.20823,-1.744903,0.2002697,1.553156,890,-695,516
2453.785,0.7460625,-12.72279,0.2825158,3.251326,-1.5702,0.03941478,1.593636,858,-644,461
2453.789,0.7499688,-12.54083,-0.1771709,3.102885,-1.417867,-0.1033307,1.622398,881,-612,470
2453.793,0.753875,-11.91355,-0.593762,3.131616,-1.261273,-0.2130529,1.641572,899,-625,480
2453.797,0.7577813,-11.42034,-0.8475474,2.87783,-1.116397,-0.2663161,1.647964,885,-638,488
2453.801,0.7616875,-10.74039,-0.9289502,2.121263,-0.9108011,-0.2109224,1.636246,904,-644,496
2453.805,0.7655938,-10.18015,-0.8762778,1.810016,-0.7382283,-0.1139833,1.614941,887,-636,494
2453.809,0.7695,-9.739612,-0.8619126,1.92015,-0.5379585,-0.01278317,1.59044,874,-626,466
2453.812,0.7734063,-9.524134,-1.005565,2.035071,-0.3131877,0.09267801,1.561678,865,-633,472
2453.816,0.7773125,-9.361328,-1.637634,2.810793,0.01917476,0.2567287,1.520132,825,-648,474
2453.82,0.7812188,-9.423578,-2.15957,2.896984,0.2567287,0.3494067,1.492435,853,-661,499
2453.824,0.785125,-9.677363,-2.667141,2.39899,0.4090615,0.4143879,1.475391,864,-634,485
2453.828,0.7890313,-10.12268,-3.055001,1.757344,0.4538026,0.4410195,1.473261,875,-651,479
2453.832,0.7929375,-10.47703,-3.122039,1.086968,0.4111921,0.4175837,1.466869,828,-628,478
2453.836,0.7968438,-10.52012,-2.715025,0.6943185,0.3462109,0.386691,1.458347,844,-665,462
2453.84,0.80075,-10.40999,-1.991976,0.1915361,0.2609898,0.3696468,1.449825,903,-666,460
2453.844,0.8046563,-10.29507,-1.192312,-0.2346318,0.1629855,0.3685815,1.442368,874,-643,471
2453.848,0.8085625,-10.12268,-0.1340753,-0.6464344,0.04154531,0.3685815,1.416802,871,-656,476
2453.852,0.8124688,-10.00776,0.5889736,-0.794875,-0.02343582,0.3419499,1.378452,894,-660,455
2453.855,0.816375,-9.911995,1.331176,-0.9433155,-0.05858954,0.298274,1.326254,843,-669,493
2453.859,0.8202813,-9.797073,2.221819,-0.9959879,-0.0660464,0.2428803,1.255947,826,-628,494
2453.863,0.8241875,-9.509769,3.361459,-1.254562,-0.0330232,0.1949434,1.176052,821,-644,439
2453.867,0.8280938,-9.32781,4.13718,-1.37906,0.02876214,0.1938781,1.130246,869,-640,495
2453.871,0.832,-9.169792,4.884171,-1.388637,0.1267665,0.2130529,1.10681,880,-673,462
2453.875,0.8359063,-9.121908,5.444415,-1.388637,0.2514024,0.2322276,1.098288,855,-646,510
2453.879,0.8398125,-9.064447,6.062119,-1.37906,0.4261058,0.2524677,1.10681,851,-637,479
2453.883,0.8437188,-9.059659,6.263232,-1.374272,0.535828,0.2535329,1.119593,857,-659,470
2453.887,0.847625,-9.045294,6.229713,-1.489193,0.6125271,0.2556635,1.135572,891,-617,496
2453.891,0.8515313,-9.011775,6.066907,-1.551443,0.6476808,0.2609898,1.141963,842,-658,514
2453.895,0.8554375,-8.8777,5.434838,-1.513135,0.6295713,0.273773,1.140898,882,-652,478
2453.898,0.8593438,-8.825027,4.927267,-1.407791,0.5741775,0.2865561,1.130246,839,-603,493
2453.902,0.86325,-8.734048,4.434061,-1.072602,0.4985438,0.2950782,1.104679,863,-680,461
2453.906,0.8671563,-8.791508,4.065354,-0.8619126,0.4090615,0.3110572,1.078048,856,-643,447
2453.91,0.8710625,-8.872911,3.600879,-0.4453215,0.2886867,0.3259709,1.037568,855,-681,498
2453.914,0.8749688,-8.820239,3.380613,-0.296881,0.205596,0.3334278,0.9981528,855,-676,499
2453.918,0.878875,-8.868123,3.294421,-0.07661445,0.1171791,0.3440804,0.9608685,827,-619,488
2453.922,0.8827813,-8.743624,3.280056,0.03351882,0.03408846,0.350472,0.922519,853,-669,495
2453.926,0.8866875,-8.767566,3.366248,0.1628057,-0.08522115,0.3557983,0.8767126,845,-668,453
2453.93,0.8905938,-8.566454,3.576937,0.2442086,-0.1842907,0.3547331,0.8447547,894,-635,496
2453.934,0.8945,-8.461109,3.806781,0.4213795,-0.2929477,0.3557983,0.8181231,838,-649,512
2453.938,0.8984063,-8.370129,4.151546,0.5075708,-0.4079963,0.3611246,0.7946873,876,-633,468
2453.941,0.9023125,-8.303091,4.620809,0.6847417,-0.5635249,0.3643204,0.7723167,865,-640,472
2453.945,0.9062188,-8.221689,4.960786,0.9289502,-0.680704,0.3685815,0.757403,897,-644,464
2453.949,0.910125,-8.140286,5.286397,1.015142,-0.7872304,0.3632552,0.7467504,851,-649,459
2453.953,0.9140313,-7.905654,5.588067,1.134852,-0.9161274,0.3440804,0.7403588,837,-640,480
2453.957,0.9179375,-7.733271,5.81791,1.029507,-1.000283,0.330232,0.741424,812,-639,467
2453.961,0.9218438,-7.651869,6.038177,0.9337386,-1.072721,0.3270362,0.7478156,847,-632,500
2453.965,0.92575,-7.479486,6.105214,0.7661445,-1.128115,0.3238404,0.7605988,837,-683,495
2453.969,0.9296563,-7.31668,6.114791,0.4788403,-1.170726,0.3291667,0.7808388,846,-648,494
2453.973,0.9335625,-7.307103,6.086061,0.3687071,-1.179248,0.3323625,0.8000136,833,-657,498
2453.977,0.9374688,-7.297527,6.095637,0.1580173,-1.178182,0.3334278,0.8181231,850,-624,485
2453.98,0.941375,-7.350199,5.961562,0.01436521,-1.166465,0.3430151,0.8351673,813,-655,479
2453.984,0.9452813,-7.335834,5.635951,0.06224924,-1.140898,0.3312972,0.8575379,828,-643,505
2453.988,0.9491875,-7.240066,5.430049,-0.03351882,-1.114267,0.3121225,0.870321,831,-694,512
2453.992,0.9530938,-7.153875,5.214571,-0.1388637,-1.080178,0.2929477,0.8767126,858,-633,468
2453.996,0.957,-7.043741,4.884171,-0.2154781,-1.035437,0.2833603,0.8777779,853,-659,493
2454,0.9609063,-6.971915,4.577714,-0.1867477,-0.9683254,0.2908172,0.8777779,823,-667,502
2454.004,0.9648125,-6.991069,4.352659,-0.1484405,-0.9129316,0.2972088,0.8745821,856,-665,494
2454.008,0.9687188,-7.019799,4.165911,-0.07661445,-0.8522115,0.3014698,0.8681905,826,-678,523
2454.012,0.972625,-6.981492,3.926491,0.02394202,-0.7893609,0.294013,0.8575379,834,-651,488
2454.016,0.9765313,-7.04853,3.734955,0.03351882,-0.6998787,0.2801645,0.8479505,879,-645,530
2454.02,0.9804375,-7.038953,3.600879,0.1532289,-0.6274408,0.2641856,0.8372978,840,-672,500
2454.023,0.9843438,-6.98628,3.466804,0.1005565,-0.5528722,0.241815,0.8255799,841,-627,490
2454.027,0.98825,-6.933608,3.428497,0.2106897,-0.4751079,0.2258361,0.8181231,882,-622,491
2454.031,0.9921563,-6.823475,3.385401,0.272939,-0.3728426,0.2098571,0.8064052,821,-639,474
2454.035,0.9960625,-6.727707,3.404555,0.3591302,-0.3004046,0.1970739,0.793622,841,-647,467
2454.039,0.9999688,-6.617573,3.428497,0.3543418,-0.2300971,0.1864213,0.7808388,794,-663,508
2454.043,1.003875,-6.59842,3.514688,0.4453215,-0.1576591,0.1747034,0.7637946,886,-648,497
2454.047,1.007781,-6.521805,3.663129,0.545878,-0.06711166,0.1640507,0.7435546,868,-582,481
2454.051,1.011688,-6.473921,3.77805,0.6703765,0.001065264,0.1512675,0.7286409,852,-655,491
2454.055,1.015594,-6.330269,3.931279,0.8140286,0.0660464,0.1374191,0.7084008,852,-659,486
2454.059,1.0195,-6.29675,4.027047,0.8283938,0.1299623,0.1235707,0.6956177,839,-617,530
2454.062,1.023406,-6.200982,4.218583,0.9241618,0.2098571,0.112918,0.6796387,848,-632,482
2454.066,1.027313,-6.23929,4.386177,0.9864111,0.2695119,0.1161138,0.6668555,826,-636,480
2454.07,1.031219,-6.14831,4.520253,1.063026,0.3281014,0.1161138,0.6540724,844,-668,497
2454.074,1.035125,-6.196194,4.692635,1.053449,0.3834952,0.1118528,0.6434197,870,-651,472
2454.078,1.039031,-6.181829,4.912902,1.120486,0.4442153,0.1097222,0.6317018,850,-640,491
2454.082,1.042938,-6.138733,5.0374,1.16837,0.4878911,0.1043959,0.6210492,863,-618,513
2454.086,1.046844,-6.105214,5.267244,1.187524,0.5187838,0.09480853,0.6125271,831,-662,497
2454.09,1.05075,-5.975927,5.415684,1.125275,0.5422196,0.08628642,0.6029397,821,-660,519
2454.094,1.054656,-5.81791,5.592855,1.106121,0.556068,0.08309063,0.5901565,842,-672,504
2454.098,1.058563,-5.707777,5.774814,1.082179,0.5592638,0.08415589,0.5816344,814,-661,498
2454.102,1.062469,-5.626374,5.928043,1.106121,0.5571333,0.08628642,0.572047,825,-668,490
2454.105,1.066375,-5.564125,6.157887,1.163582,0.5507417,0.0958738,0.5592638,833,-638,492
2454.109,1.070281,-5.468357,6.41646,1.192312,0.5283712,0.1065264,0.5390238,823,-633,493
2454.113,1.074188,-5.468357,6.545747,1.297657,0.499609,0.1150486,0.5241101,855,-652,480
2454.117,1.078094,-5.377377,6.761225,1.28808,0.4655206,0.1182444,0.5113269,820,-641,513
2454.121,1.082,-5.396531,6.823475,1.331176,0.42291,0.1171791,0.495348,789,-659,486
2454.125,1.085906,-5.334281,6.991069,1.422156,0.3579289,0.1193096,0.4719121,824,-657,523
2454.129,1.089813,-5.267244,7.139509,1.393425,0.3014698,0.1161138,0.4559332,813,-667,472
2454.133,1.093719,-5.104438,7.206547,1.403002,0.2407498,0.1107875,0.4399542,829,-663,528
2454.137,1.097625,-4.951209,7.273585,1.374272,0.1715076,0.112918,0.4239752,836,-649,480
2454.141,1.101531,-4.730942,7.240066,1.422156,0.07350325,0.112918,0.3984089,849,-651,496
2454.145,1.105438,-4.510676,7.249643,1.484405,-0.005326322,0.1171791,0.3771036,840,-653,502
2454.148,1.109344,-4.419696,7.163451,1.503559,-0.08522115,0.1225054,0.3536678,825,-606,502
2454.152,1.11325,-4.362235,7.053318,1.565808,-0.165116,0.1320928,0.3217099,833,-672,463
2454.156,1.117156,-4.185065,6.947973,1.570596,-0.2599245,0.1544633,0.2748382,853,-643,536
2454.16,1.121063,-4.132392,6.880936,1.527501,-0.3206446,0.1874865,0.2386192,828,-678,501
2454.164,1.124969,-4.098873,6.83784,1.412579,-0.3643204,0.2237055,0.1938781,804,-643,487
2454.168,1.128875,-4.10845,6.823475,1.177947,-0.3877563,0.2705772,0.149137,835,-656,479
2454.172,1.132781,-4.146757,6.924031,0.8523358,-0.4058658,0.3387541,0.08735168,849,-643,485
2454.176,1.136688,-4.209007,6.852205,0.6799533,-0.4037352,0.3930826,0.04261058,818,-648,500
2454.18,1.140594,-4.323928,6.761225,0.4070143,-0.4016047,0.4495416,-0.004261058,822,-653,522
2454.184,1.1445,-4.477157,6.646304,0.225055,-0.4037352,0.4974785,-0.05432849,821,-623,485
2454.188,1.148406,-4.817134,6.593631,-0.1388637,-0.4143879,0.5571333,-0.1299623,826,-648,491
2454.191,1.152313,-5.200206,6.464344,-0.4022259,-0.4356932,0.6050702,-0.1842907,836,-673,503
2454.195,1.156219,-5.530606,6.47871,-0.7757213,-0.4612595,0.660464,-0.2407498,805,-648,526
2454.199,1.160125,-6.014235,6.205771,-1.192312,-0.4697816,0.7115966,-0.2972088,818,-648,496
2454.203,1.164031,-6.74686,6.047753,-1.484405,-0.4495416,0.7712515,-0.3888215,834,-633,479
2454.207,1.167938,-7.216124,6.009446,-1.575385,-0.4410195,0.8032094,-0.4548679,830,-632,486
2454.211,1.171844,-7.790732,5.93762,-1.532289,-0.4239752,0.8202536,-0.5123922,800,-658,499
2454.215,1.17575,-8.331822,5.90889,-1.532289,-0.3802994,0.8223841,-0.5624596,788,-646,517
2454.219,1.179656,-8.882488,5.980716,-1.508347,-0.2545982,0.8064052,-0.5986786,830,-632,483
2454.223,1.183563,-9.212888,6.0286,-1.28808,-0.1193096,0.7968178,-0.5965481,826,-655,470
2454.227,1.187469,-9.323021,6.066907,-1.125275,0.04048005,0.7957525,-0.5539375,811,-679,507
2454.23,1.191375,-9.481039,6.066907,-1.101333,0.2290319,0.8074704,-0.4751079,785,-647,514
2454.234,1.195281,-9.811438,5.262455,-1.790863,0.5305017,0.8735168,-0.3568636,811,-697,496
2454.238,1.199188,-10.29986,4.735731,-2.327164,0.8277105,0.9448896,-0.3089267,816,-631,488
2454.242,1.203094,-10.93192,4.309563,-2.753332,1.150486,0.978978,-0.2950782,839,-667,472
2454.246,1.207,-12.0572,3.600879,-3.232172,1.446629,0.9715212,-0.3121225,830,-635,471
2454.25,1.210906,-14.28381,3.002329,-3.533842,1.751295,0.9406285,-0.4335626,812,-679,490
2454.254,1.214813,-15.8544,3.414132,-3.428497,1.824798,0.9523464,-0.6157228,825,-637,507
2454.258,1.218719,-16.50563,4.970363,-2.667141,1.734251,0.9853696,-0.8404936,867,-654,473
2454.262,1.222625,-15.76342,7.704541,-1.37906,1.516937,1.00774,-1.012001,851,-639,489
2454.266,1.226531,-13.96777,12.13381,0.7326257,1.116397,1.006675,-1.050351,825,-649,478
2454.27,1.230438,-13.53203,15.2367,2.212242,0.8223841,1.02585,-0.938498,821,-672,485
2454.273,1.234344,-14.03002,17.7123,4.673482,0.5784386,1.042894,-0.7446198,843,-674,485
2454.277,1.23825,-16.01242,19.87666,7.158663,0.4165184,0.8586031,-0.4932174,870,-668,483
2454.281,1.242156,-17.01799,22.10327,7.580042,0.3355583,0.1715076,-0.1757686,810,-640,508
2454.285,1.246063,-16.37634,23.70738,4.180276,0.2609898,-0.334493,0.07030745,808,-671,482
2454.289,1.249969,-14.27902,24.90927,-0.1484405,0.07563377,-0.4143879,0.3792341,821,-672,475
2454.293,1.253875,-11.71243,24.39691,-0.01915361,-0.2162487,-0.08522115,0.7616641,813,-624,491
2454.297,1.257781,-10.88404,18.67477,4.630386,-0.4261058,0.3131877,1.319863,819,-633,491
2454.301,1.261688,-10.75954,11.81299,6.904878,-0.6572682,0.2705772,1.574461,827,-635,498
2454.305,1.265594,-10.76912,4.936844,5.683835,-1.107875,0.05432849,1.577657,834,-651,525
2454.309,1.2695,-10.33337,-0.225055,4.247314,-1.665008,-0.2183792,1.391235,824,-658,494
2454.312,1.273406,-9.873688,-4.697424,3.083732,-2.326538,-0.5965481,1.083374,798,-638,472
2454.316,1.277313,-9.782708,-7.19697,1.273715,-2.620551,-0.7424893,0.902279,832,-662,471
2454.32,1.281219,-10.21366,-9.945514,0.06224924,-2.668487,-0.6945524,0.741424,834,-625,509
2454.324,1.285125,-12.38281,-13.46499,1.584961,-2.304167,-0.5230448,0.4165184,835,-654,493
2454.328,1.289031,-13.83849,-16.69716,3.983952,-1.791775,-0.4921522,0.03408846,859,-623,459
2454.332,1.292938,-13.48893,-16.65407,6.378153,-1.222924,-0.6498113,-0.4133226,841,-671,501
2454.336,1.296844,-11.42513,-14.51844,6.071695,-0.6988135,-0.9693906,-0.8575379,805,-634,491
2454.34,1.30075,-8.054094,-11.17134,-1.302446,0.0479369,-1.23038,-1.345429,798,-633,498
2454.344,1.304656,-7.082049,-9.418789,-8.001422,0.9523464,-0.9693906,-1.595766,829,-640,446
2454.348,1.308563,-7.685387,-8.159439,-10.86968,2.124137,-0.4165184,-1.75236,819,-641,498
2454.352,1.312469,-9.591172,-7.666234,-8.791508,3.108442,0.02024002,-1.85143,800,-694,497
2454.355,1.316375,-11.31979,-8.628703,-5.310339,3.482349,0.006391587,-1.938781,805,-652,482
2454.359,1.320281,-10.29507,-8.508993,-6.133945,3.218164,-0.2556635,-1.992044,819,-617,490
2454.363,1.324188,-8.398859,-6.933608,-7.987057,2.967827,-0.3483415,-2.038916,841,-661,534
2454.367,1.328094,-7.867347,-4.414908,-8.45632,2.9625,-0.149137,-2.066613,829,-628,497
2454.371,1.332,-10.52491,-0.8762778,-6.780379,3.331082,0.2482066,-2.065548,810,-639,480
2454.375,1.335906,-12.85207,1.814805,-5.813122,3.718838,0.4133226,-2.057026,807,-648,482
2454.379,1.339813,-13.96298,4.448427,-5.497087,3.977697,0.4548679,-2.041047,858,-635,479
2454.383,1.343719,-13.46499,7.201759,-4.740519,3.971306,0.42291,-1.982457,846,-683,499
2454.387,1.347625,-11.92791,9.739612,-3.653552,3.562244,0.2918825,-1.763013,866,-660,502
2454.391,1.351531,-11.1474,10.42914,-3.907337,3.106311,0.201335,-1.53185,824,-684,486
2454.395,1.355438,-10.70687,10.56801,-4.606444,2.668487,0.1661813,-1.365669,860,-643,492
2454.398,1.359344,-10.35732,10.68293,-4.941632,2.290319,0.1661813,-1.314536,823,-656,490
2454.402,1.36325,-9.969456,11.08037,-4.405331,1.836516,0.1427454,-1.356082,850,-643,497
2454.406,1.367156,-9.710882,10.93671,-3.921702,1.515871,0.06178534,-1.394431,827,-636,505
2454.41,1.371063,-9.423578,10.24718,-3.586514,1.213336,-0.02343582,-1.417867,841,-627,505
2454.414,1.374969,-8.925584,9.08839,-3.667917,0.9278453,-0.06391587,-1.444499,802,-656,499
2454.418,1.378875,-8.312668,7.350199,-3.902549,0.5826996,-0.0479369,-1.488174,869,-669,461
2454.422,1.382781,-8.130709,5.951985,-3.773262,0.3398194,-0.0181095,-1.518002,881,-661,497
2454.426,1.386688,-8.255207,4.750096,-3.490746,0.1139833,-0.01278317,-1.541438,862,-640,489
2454.43,1.390594,-8.389283,3.677494,-3.29921,-0.07669904,-0.02237055,-1.551025,831,-656,481
2454.434,1.3945,-8.552088,2.494758,-3.169923,-0.2620551,-0.03728426,-1.561678,859,-636,475
2454.438,1.398406,-8.571242,1.819593,-2.983175,-0.3483415,-0.02876214,-1.562743,821,-680,464
2454.441,1.402313,-8.662222,1.177947,-2.801216,-0.3930826,-0.0181095,-1.567004,844,-651,502
2454.445,1.406219,-8.839393,0.7661445,-2.48997,-0.3973436,-0.007456851,-1.571265,846,-650,489
2454.449,1.410125,-9.126697,0.3064578,-2.331952,-0.3621899,-0.00958738,-1.585113,843,-644,486
2454.453,1.414031,-9.093178,-0.01436521,-2.365471,-0.3163835,-0.01704423,-1.601092,885,-671,487
2454.457,1.417938,-8.99741,-0.1244985,-2.360683,-0.2567287,-0.008522115,-1.621332,833,-633,477
2454.461,1.421844,-8.863335,-0.2154781,-2.260126,-0.2002697,0.003195793,-1.642638,845,-645,520
2454.465,1.42575,-8.738836,-0.1628057,-2.149993,-0.1278317,0.02663161,-1.665008,871,-612,501
2454.469,1.429656,-8.719682,-0.07661445,-2.097321,-0.07669904,0.03728426,-1.682053,820,-635,490
2454.473,1.433563,-8.647856,0.07661445,-2.044648,-0.02130529,0.04154531,-1.695901,857,-670,471
2454.477,1.437469,-8.5473,0.225055,-1.996764,0.03728426,0.03941478,-1.710815,866,-661,504
2454.48,1.441375,-8.489839,0.4022259,-1.982399,0.1139833,0.03621899,-1.725728,891,-601,537
2454.484,1.445281,-8.485051,0.4740519,-1.910573,0.1672465,0.05113269,-1.736381,871,-677,465
2454.488,1.449188,-8.403648,0.641646,-1.896208,0.2194445,0.05539375,-1.748099,850,-643,503
2454.492,1.453094,-8.355764,0.7709329,-1.82917,0.2652508,0.05752428,-1.755556,855,-657,476
2454.496,1.457,-8.346187,0.9768343,-1.819593,0.3067962,0.04900216,-1.758752,895,-650,503
2454.5,1.460906,-8.355764,1.072602,-1.786074,0.3334278,0.04154531,-1.754491,821,-623,487
2454.504,1.464813,-8.279149,1.158794,-1.695095,0.3621899,0.03834952,-1.742773,872,-632,507
2454.508,1.468719,-8.288726,1.331176,-1.623269,0.3877563,0.03408846,-1.726794,841,-636,514
2454.512,1.472625,-8.317457,1.35033,-1.374272,0.427171,0.01917476,-1.694836,862,-628,479
2454.516,1.476531,-8.360552,1.374272,-1.25935,0.4516721,-0.001065264,-1.665008,848,-625,518
2454.52,1.480438,-8.269573,1.345541,-1.144428,0.4761732,-0.02556635,-1.629855,885,-651,471
2454.523,1.484344,-8.327033,1.340753,-0.9911995,0.4985438,-0.04900216,-1.591505,899,-654,474
2454.527,1.48825,-8.370129,1.13964,-0.7374141,0.5336975,-0.06498113,-1.535046,885,-656,474
2454.531,1.492156,-8.494627,0.9768343,-0.6224924,0.5688512,-0.07563377,-1.493501,866,-621,499
2454.535,1.496063,-8.504204,0.890643,-0.4596867,0.6093313,-0.1012001,-1.454086,841,-682,480
2454.539,1.499969,-8.571242,0.7182605,-0.4884171,0.660464,-0.1246359,-1.412541,827,-660,498
2454.543,1.503875,-8.604761,0.5315128,-0.5602432,0.7329019,-0.1395496,-1.355016,848,-668,508
2454.547,1.507781,-8.734048,0.3926491,-0.6224924,0.7957525,-0.1502023,-1.315602,868,-643,500
2454.551,1.511688,-8.825027,0.2873042,-0.6224924,0.8628642,-0.1533981,-1.280448,874,-624,454
2454.555,1.515594,-8.872911,0.1340753,-0.6799533,0.9289106,-0.1683118,-1.246359,887,-633,518
2454.559,1.5195,-9.040505,0.03351882,-0.8379706,1.016262,-0.1970739,-1.206945,895,-662,476
2454.562,1.523406,-9.064447,-0.08140286,-0.9433155,1.078048,-0.2279666,-1.178182,833,-651,519
2454.566,1.527313,-9.097966,-0.05267244,-1.182736,1.130246,-0.2556635,-1.151551,861,-652,487
2454.57,1.531219,-9.126697,-0.07182605,-1.359907,1.16966,-0.2897519,-1.122789,865,-640,535
2454.574,1.535125,-9.112332,0.1915361,-1.561019,1.194161,-0.3227751,-1.081243,862,-646,468
2454.578,1.539031,-9.08839,0.320823,-1.632846,1.188835,-0.3440804,-1.052481,891,-622,506
2454.582,1.542938,-8.983045,0.5075708,-1.704672,1.16966,-0.3675162,-1.021589,892,-636,473
2454.586,1.546844,-8.853758,0.6560113,-1.795651,1.128115,-0.3930826,-0.9928265,867,-634,501
2454.59,1.55075,-8.700529,0.8140286,-1.991976,1.050351,-0.4122573,-0.9704559,892,-650,500
2454.594,1.554656,-8.686164,0.9289502,-2.020706,0.974717,-0.406931,-0.9640643,885,-661,478
2454.598,1.558563,-8.628703,1.039084,-1.977611,0.8841695,-0.3941478,-0.9629991,868,-647,520
2454.602,1.562469,-8.571242,1.058237,-1.752556,0.7914915,-0.3728426,-0.9725864,845,-653,494
2454.605,1.566375,-8.556877,0.9720459,-1.527501,0.6572682,-0.3472762,-0.9938917,876,-660,502
2454.609,1.570281,-8.604761,0.9720459,-1.273715,0.5581986,-0.3185141,-1.015197,861,-619,463
2454.613,1.574188,-8.623914,0.9816227,-1.04866,0.4644553,-0.2993393,-1.040763,868,-663,461
2454.617,1.578094,-8.657433,0.9911995,-0.842759,0.3696468,-0.2822951,-1.063134,850,-626,447
2454.621,1.582,-8.719682,1.010353,-0.7230489,0.2460761,-0.2631203,-1.078048,880,-666,511
2454.625,1.585906,-8.671798,0.9911995,-0.5027823,0.1597897,-0.241815,-1.087635,892,-631,519
2454.629,1.589813,-8.690952,0.9433155,-0.4405331,0.07456851,-0.2237055,-1.092961,906,-618,502
2454.633,1.593719,-8.532935,0.7469909,-0.3399766,-0.003195793,-0.2024002,-1.100418,863,-637,473
2454.637,1.597625,-8.523358,0.6799533,-0.296881,-0.08522115,-0.1587244,-1.128115,930,-640,482
2454.641,1.601531,-8.595184,0.8236054,-0.2011129,-0.1406149,-0.1107875,-1.148355,876,-631,489
2454.645,1.605438,-8.743624,1.04866,-0.1053449,-0.1928129,-0.0660464,-1.155812,909,-633,463
2454.648,1.609344,-8.916007,1.316811,-0.06224924,-0.2247708,-0.03195793,-1.165399,893,-619,487
2454.652,1.61325,-8.992621,1.819593,-0.1244985,-0.2439456,0.01704423,-1.178182,880,-659,463
2454.656,1.617156,-8.939949,2.03986,-0.248997,-0.2269013,0.04154531,-1.190966,891,-638,461
2454.66,1.621063,-8.863335,2.557007,-0.5889736,-0.201335,0.0628506,-1.212271,893,-645,489
2454.664,1.624969,-8.734048,2.633622,-1.158794,-0.201335,0.08735168,-1.225054,843,-653,526
2454.668,1.628875,-8.599972,2.494758,-1.575385,-0.2066613,0.1257012,-1.251686,859,-615,493
2454.672,1.632781,-8.528146,2.336741,-2.063802,-0.2162487,0.1608549,-1.284709,908,-647,495
2454.676,1.636688,-8.51857,2.111686,-2.485181,-0.2407498,0.2098571,-1.313471,892,-634,465
2454.68,1.640594,-8.418013,1.742979,-2.657564,-0.241815,0.2812298,-1.335842,863,-624,511
2454.684,1.6445,-8.508993,1.35033,-2.542642,-0.2141182,0.3217099,-1.378452,931,-641,494
2454.688,1.648406,-8.743624,1.484405,-2.432509,-0.169377,0.3430151,-1.401888,911,-639,499
2454.691,1.652313,-8.973468,1.628057,-2.379836,-0.1352886,0.350472,-1.400823,858,-663,493
2454.695,1.656219,-9.121908,1.714248,-2.351106,-0.08202536,0.334493,-1.394431,899,-661,502
2454.699,1.660125,-9.059659,1.80044,-2.351106,-0.05432849,0.3185141,-1.383779,912,-652,509
2454.703,1.664031,-8.772355,1.790863,-2.418144,-0.03089267,0.2929477,-1.366734,885,-651,483
2454.707,1.667938,-8.623914,1.867477,-2.662352,0.005326322,0.2844256,-1.359277,899,-617,512
2454.711,1.671844,-8.33661,1.905785,-2.8491,0.04900216,0.2972088,-1.34756,899,-648,486
2454.715,1.67575,-8.303091,1.781286,-2.892196,0.06924219,0.2876214,-1.339037,921,-648,469
2454.719,1.679656,-8.384494,1.656788,-2.99754,0.08415589,0.2876214,-1.336907,896,-622,466
2454.723,1.683563,-8.561665,1.503559,-3.294421,0.08735168,0.2716424,-1.339037,931,-626,494
2454.727,1.687469,-8.839393,1.154005,-3.543418,0.04687164,0.2545982,-1.336907,945,-620,465
2454.73,1.691375,-9.126697,0.8092402,-3.624821,-0.003195793,0.2322276,-1.344364,919,-626,473
2454.734,1.695281,-9.428366,0.5123592,-3.562572,-0.06178534,0.2087918,-1.357147,856,-617,474
2454.738,1.699188,-9.730036,0.3016694,-3.356671,-0.1214401,0.1757686,-1.366734,883,-622,513
2454.742,1.703094,-10.20409,0.02873042,-2.748544,-0.181095,0.1235707,-1.381648,930,-593,514
2454.746,1.707,-10.47224,-0.03351882,-2.264915,-0.1992044,0.08522115,-1.38804,889,-611,489
2454.75,1.710906,-10.64462,-0.004788403,-1.70946,-0.1938781,0.04474111,-1.389105,885,-679,469
2454.754,1.714813,-10.79785,0.05746084,-1.192312,-0.1597897,0.02024002,-1.384844,887,-665,489
2454.758,1.718719,-10.85531,0.1963245,-0.5889736,-0.08309063,0.005326322,-1.376322,904,-651,457
2454.762,1.722625,-10.86489,0.248997,-0.2633622,-0.002130529,0.01384844,-1.368865,898,-635,497
2454.766,1.726531,-10.77391,0.2633622,0,0.09800433,0.03728426,-1.356082,882,-646,484
2454.77,1.730438,-10.60631,0.296881,0.1149217,0.2173139,0.07989483,-1.344364,884,-594,454
2454.773,1.734344,-10.45308,0.2106897,0.1197101,0.3856257,0.1523328,-1.324124,887,-615,482
2454.777,1.73825,-10.46266,0.04309563,0.06703765,0.5102617,0.2087918,-1.301753,887,-600,473
2454.781,1.742156,-10.64462,-0.04788403,-0.1101333,0.6274408,0.2428803,-1.271926,893,-614,489
2454.785,1.746063,-10.89362,-0.2106897,-0.2394202,0.7339672,0.2514024,-1.233576,899,-636,479
2454.789,1.749969,-11.38203,-0.344765,-0.7230489,0.8681905,0.1821602,-1.16753,903,-621,499
2454.793,1.753875,-11.69328,-0.3591302,-1.16837,0.9757822,0.0777643,-1.10894,889,-633,503
2454.797,1.757781,-11.93749,-0.2777274,-1.805228,1.096157,-0.06391587,-1.042894,921,-638,473
2454.801,1.761688,-11.98537,-0.2011129,-2.533065,1.222924,-0.2247708,-0.9768475,912,-680,507
2454.805,1.765594,-11.80341,0.1675941,-3.687071,1.404019,-0.4495416,-0.8894958,916,-641,482
2454.809,1.7695,-11.48738,0.5315128,-4.515464,1.539307,-0.6018744,-0.8330368,892,-645,494
2454.812,1.773406,-11.04206,1.04866,-5.238513,1.65329,-0.7243798,-0.7861652,879,-660,496
2454.816,1.777313,-10.60152,1.628057,-5.918467,1.740642,-0.8053399,-0.7382283,930,-633,482
2454.82,1.781219,-9.974244,2.662352,-6.282385,1.829059,-0.8575379,-0.680704,864,-629,470
2454.824,1.785125,-9.600749,3.294421,-6.301539,1.863147,-0.8628642,-0.6370281,931,-629,499
2454.828,1.789031,-9.188946,4.055778,-5.942409,1.867409,-0.8554073,-0.5997439,928,-611,490
2454.832,1.792938,-9.006987,4.802769,-5.482722,1.829059,-0.8309063,-0.5603291,902,-651,471
2454.836,1.796844,-8.968679,5.592855,-4.702212,1.747034,-0.7840346,-0.4932174,916,-640,459
2454.84,1.80075,-9.078813,6.129156,-3.955221,1.672465,-0.7478156,-0.4527374,941,-594,474
2454.844,1.804656,-9.165004,6.483498,-3.280056,1.574461,-0.7190535,-0.4197142,938,-643,494
2454.848,1.808563,-9.375694,6.761225,-2.60968,1.446629,-0.6902914,-0.3920173,877,-602,466
2454.852,1.812469,-9.538499,6.919243,-2.015918,1.242098,-0.6476808,-0.3632552,932,-633,468
2454.855,1.816375,-9.653421,7.024588,-1.762132,1.082309,-0.6040049,-0.3430151,927,-631,473
2454.859,1.820281,-9.610325,7.110779,-1.608904,0.9214537,-0.5528722,-0.3259709,919,-660,470
2454.863,1.824188,-9.572018,7.058106,-1.604115,0.7627293,-0.4921522,-0.3089267,985,-633,469
2454.867,1.828094,-9.581595,6.856994,-1.719037,0.5709817,-0.4197142,-0.278034,904,-633,467
2454.871,1.832,-9.624691,6.631939,-1.728614,0.4580637,-0.3739078,-0.2503371,930,-640,471
2454.875,1.835906,-9.648633,6.368576,-1.924938,0.370712,-0.3398194,-0.2151834,876,-629,483
2454.879,1.839813,-9.725247,6.086061,-2.111686,0.309992,-0.3312972,-0.1704423,912,-602,477
2454.883,1.843719,-9.892841,5.913678,-2.652775,0.2460761,-0.3153183,-0.1075917,903,-612,508
2454.887,1.847625,-10.33816,6.052542,-3.131616,0.2098571,-0.2972088,-0.05113269,913,-620,439
2454.891,1.851531,-10.87925,6.38773,-3.691859,0.1949434,-0.2822951,0.02450108,915,-635,489
2454.895,1.855438,-11.62145,6.83784,-4.050989,0.2098571,-0.2769688,0.1022654,914,-633,492
2454.898,1.859344,-12.65096,7.565677,-4.247314,0.2833603,-0.3004046,0.2258361,925,-610,497
2454.902,1.86325,-13.18726,7.891289,-4.343082,0.3494067,-0.3515373,0.3366236,871,-643,460
2454.906,1.867156,-13.24472,7.599196,-4.352659,0.3877563,-0.4165184,0.4623248,867,-602,487
2454.91,1.871063,-12.93348,6.660669,-4.204218,0.3675162,-0.4889564,0.5848302,895,-665,492
2454.914,1.874969,-12.24874,5.425261,-3.883395,0.2482066,-0.5667207,0.7147924,904,-647,473
2454.918,1.878875,-11.78905,5.252878,-3.605668,0.1193096,-0.5848302,0.7914915,918,-648,485
2454.922,1.882781,-11.51611,5.832275,-2.99754,-0.01171791,-0.5869607,0.8777779,937,-691,499
2454.926,1.886688,-11.20008,6.914454,-2.121263,-0.1320928,-0.6199839,0.9853696,892,-605,510
2454.93,1.890594,-10.2807,8.489839,-0.4022259,-0.2812298,-0.721184,1.14942,900,-646,475
2454.934,1.8945,-9.040505,9.433155,0.8283938,-0.366451,-0.8234494,1.283644,897,-644,504
2454.938,1.898406,-7.532158,9.969456,1.273715,-0.3930826,-0.9182579,1.400823,933,-638,478
2454.941,1.902313,-6.14831,9.945514,1.13964,-0.3430151,-0.9736517,1.487109,887,-624,479
2454.945,1.906219,-4.572925,9.021352,1.264138,-0.1917476,-0.9757822,1.582983,888,-618,502
2454.949,1.910125,-3.74932,7.982268,1.82917,-0.07030745,-0.9214537,1.661813,921,-655,505
2454.953,1.914031,-3.294421,6.83784,2.767697,0.008522115,-0.86606,1.759817,919,-615,500
2454.957,1.917938,-3.1795,6.009446,3.323152,0,-0.8596684,1.867409,899,-638,468
2454.961,1.921844,-3.610456,4.879383,3.457227,-0.1139833,-0.8841695,2.028263,899,-609,470
2454.965,1.92575,-4.323928,4.525041,2.753332,-0.165116,-0.882039,2.191249,882,-601,511
2454.969,1.929656,-5.046977,4.802769,1.335965,-0.1629855,-0.777643,2.392584,878,-608,492
2454.973,1.933563,-5.928043,5.382165,-0.1053449,-0.169377,-0.5422196,2.608833,882,-613,482
2454.977,1.937469,-7.680599,5.631162,-0.7900865,-0.2812298,-0.1459412,2.909237,898,-626,485
2454.98,1.941375,-9.615114,5.262455,-0.8236054,-0.4079963,0.06817692,3.136138,877,-637,492
2454.984,1.945281,-12.21043,4.802769,-1.321599,-0.4910869,0.1608549,3.355583,869,-647,486
2454.988,1.949188,-15.53358,4.458003,-2.164358,-0.4676511,0.2109224,3.539874,914,-602,496
2454.992,1.953094,-21.04982,3.500323,-3.275268,-0.2599245,0.2918825,3.649596,885,-583,465
2454.996,1.957,-25.43121,1.517924,-3.318364,-0.03089267,0.3185141,3.546265,841,-647,461
2455,1.960906,-29.08476,-1.556231,-2.710236,0.185356,0.2332929,3.229882,849,-597,478
2455.004,1.964813,-30.66015,-4.084508,-1.958457,0.330232,-0.05006743,2.763296,896,-614,477
2455.008,1.968719,-28.17975,-4.88896,-1.11091,0.3121225,-0.6178534,2.333994,856,-661,492
2455.012,1.972625,-24.18144,-5.066131,-1.120486,0.2407498,-0.9523464,2.315885,876,-657,464
2455.016,1.976531,-20.0682,-5.401319,-2.140416,0.2599245,-0.9843043,2.403237,861,-601,465
2455.02,1.980438,-16.29494,-5.33907,-3.213019,0.3376888,-0.6732471,2.41815,889,-637,455
2455.023,1.984344,-15.47133,-4.070143,-2.8491,0.309992,-0.07030745,2.305232,874,-573,459
2455.027,1.98825,-16.25663,-2.959233,-1.431733,0.1480718,0.2460761,2.23599,857,-607,488
2455.031,1.992156,-17.88947,-2.154781,0.2202666,-0.0660464,0.3238404,2.228533,909,-632,448
2455.035,1.996063,-19.53669,-1.934515,1.316811,-0.2663161,0.2002697,2.261556,844,-638,475
2455.039,1.999969,-19.61809,-1.953669,1.086968,-0.4612595,-0.08948221,2.295645,889,-613,475
2455.043,2.003875,-18.60295,-2.082955,0.5171476,-0.5166533,-0.2748382,2.31482,857,-609,503
2455.047,2.007781,-16.83603,-2.212242,0.05267244,-0.4814995,-0.3792341,2.345712,882,-616,485
2455.051,2.011688,-14.48492,-2.135628,-0.2106897,-0.3238404,-0.3984089,2.403237,840,-632,493
2455.055,2.015594,-13.12501,-1.934515,-0.3351882,-0.1502023,-0.366451,2.443717,842,-647,459
2455.059,2.0195,-12.19127,-1.642422,-0.4932055,0.03621899,-0.3004046,2.485262,862,-648,494
2455.062,2.023406,-11.74595,-1.316811,-0.6033388,0.2024002,-0.1938781,2.527873,855,-632,464
2455.066,2.027313,-11.53526,-0.9193734,-0.3064578,0.370712,-0.04687164,2.58007,835,-606,451
2455.07,2.031219,-11.49696,-0.4548983,-0.1915361,0.4218447,-0.03515373,2.608833,838,-618,447
2455.074,2.035125,-11.51611,-0.02394202,-0.1915361,0.4463458,0.002130529,2.632268,871,-626,464
2455.078,2.039031,-11.40119,0.3303998,-0.2537854,0.4367584,0.02237055,2.643986,797,-623,443
2455.082,2.042938,-11.066,0.4596867,-0.2442086,0.40267,0.07350325,2.645052,832,-637,492
2455.086,2.046844,-10.76433,0.3591302,-0.2346318,0.3760383,0.1331581,2.642921,850,-654,468
2455.09,2.05075,-10.53928,0.2011129,-0.2011129,0.3611246,0.1821602,2.636529,833,-613,469
2455.094,2.054656,-10.31901,-0.07661445,-0.2154781,0.3483415,0.2279666,2.632268,861,-621,444
2455.098,2.058563,-10.21366,-0.6799533,-0.02873042,0.3430151,0.2620551,2.630138,816,-649,473
2455.102,2.062469,-10.26634,-1.091756,-0.01915361,0.3366236,0.2759035,2.624812,792,-626,482
2455.105,2.066375,-10.38126,-1.422156,0.09097966,0.3259709,0.2695119,2.610963,853,-613,442
2455.109,2.070281,-10.31901,-1.757344,0.1867477,0.3078614,0.257794,2.585397,843,-601,488
2455.113,2.074188,-10.23282,-2.116474,0.3351882,0.278034,0.2482066,2.543851,851,-621,508
2455.117,2.078094,-10.06044,-2.288857,0.3687071,0.2535329,0.2364887,2.510828,851,-626,438
2455.121,2.082,-9.878476,-2.408567,0.3112462,0.2269013,0.2300971,2.474609,860,-624,473
2455.125,2.085906,-9.610325,-2.375048,0.1388637,0.2002697,0.2311624,2.431999,815,-609,455
2455.129,2.089813,-9.275137,-2.303222,-0.07661445,0.1406149,0.2641856,2.373409,832,-655,520
2455.133,2.093719,-9.112332,-2.293645,-0.2106897,0.09693906,0.294013,2.321211,811,-629,473
2455.137,2.097625,-8.949526,-2.149993,-0.3734955,0.05219796,0.3323625,2.260491,834,-616,481
2455.141,2.101531,-8.714894,-1.977611,-0.5075708,-0.002130529,0.3834952,2.19551,828,-625,461
2455.145,2.105438,-8.389283,-1.790863,-0.4788403,-0.07882957,0.4474111,2.111354,833,-611,454
2455.148,2.109344,-8.197746,-1.599327,-0.3926491,-0.1225054,0.4772385,2.050634,816,-647,493
2455.152,2.11325,-7.910442,-1.345541,-0.3495534,-0.165116,0.5017395,1.998436,838,-662,441
2455.156,2.117156,-7.61835,-0.9816227,-0.2873042,-0.2183792,0.5241101,1.95263,832,-604,462
2455.16,2.121063,-7.388506,-0.6751649,-0.2202666,-0.3312972,0.5773733,1.887649,817,-622,460
2455.164,2.124969,-7.278373,-0.4501099,-0.05267244,-0.4346279,0.6157228,1.838646,809,-622,464
2455.168,2.128875,-7.034164,-0.225055,0.1340753,-0.5464807,0.6391587,1.799232,801,-660,478
2455.172,2.132781,-7.04853,0.04788403,0.3303998,-0.6636597,0.664725,1.768339,797,-643,463
2455.176,2.136688,-6.98628,0.2106897,0.5363012,-0.8234494,0.6838998,1.709749,781,-588,426
2455.18,2.140594,-6.943185,0.3303998,0.5985504,-0.9214537,0.6753777,1.668204,788,-620,480
2455.184,2.1445,-6.794744,0.4740519,0.6560113,-0.994957,0.6689861,1.635181,812,-624,487
2455.188,2.148406,-6.713341,0.3687071,0.6512229,-1.045024,0.6615292,1.61281,807,-613,502
2455.191,2.152313,-6.517017,0.05267244,0.4596867,-1.057808,0.6423545,1.57233,808,-623,464
2455.195,2.156219,-6.459556,-0.2298434,0.3064578,-1.043959,0.6231797,1.535046,832,-637,487
2455.199,2.160125,-6.344634,-0.5171476,0.01915361,-1.021589,0.6295713,1.498827,802,-630,459
2455.203,2.164031,-6.315904,-0.9241618,-0.2442086,-0.9896307,0.6434197,1.460478,822,-642,487
2455.207,2.167938,-6.277597,-1.441309,-0.5793968,-0.9406285,0.664725,1.399757,797,-629,497
2455.211,2.171844,-6.162675,-1.810016,-0.9002198,-0.9054748,0.6924219,1.34969,823,-617,479
2455.215,2.17575,-6.076484,-2.1883,-1.16837,-0.86606,0.7222493,1.304949,841,-638,490
2455.219,2.179656,-5.913678,-2.580949,-1.450886,-0.8159926,0.7499462,1.257012,784,-593,501
2455.223,2.183563,-5.865794,-3.078943,-1.881843,-0.7435546,0.8074704,1.18777,775,-624,449
2455.227,2.187469,-5.899313,-3.356671,-2.140416,-0.7041398,0.8767126,1.133441,827,-628,481
2455.23,2.191375,-5.899313,-3.586514,-2.269703,-0.6721819,0.958738,1.073787,810,-663,457
2455.234,2.195281,-5.894524,-3.907337,-2.317587,-0.6455502,1.034372,1.013066,791,-628,479
2455.238,2.199188,-5.932832,-4.232949,-2.303222,-0.6146576,1.121723,0.9235843,788,-614,439
2455.242,2.203094,-5.966351,-4.424485,-2.284068,-0.588026,1.168595,0.84582,806,-626,470
2455.246,2.207,-5.90889,-4.64954,-2.236184,-0.5550028,1.198422,0.7627293,832,-638,489
2455.25,2.210906,-5.904101,-4.788403,-2.116474,-0.5145227,1.209075,0.6721819,811,-646,453
2455.254,2.214813,-5.808333,-4.984728,-2.020706,-0.4463458,1.217597,0.5592638,832,-615,493
2455.258,2.218719,-5.741296,-5.171476,-1.929727,-0.3632552,1.213336,0.4761732,826,-620,450
2455.262,2.222625,-5.688623,-5.434838,-1.862689,-0.2439456,1.21014,0.3994742,813,-607,492
2455.266,2.226531,-5.602432,-5.770026,-1.953669,-0.08522115,1.216532,0.3281014,812,-652,490
2455.27,2.230438,-5.506664,-6.105214,-1.877054,0.185356,1.245294,0.2396845,835,-628,471
2455.273,2.234344,-5.554548,-6.339846,-1.781286,0.42291,1.276187,0.169377,803,-618,473
2455.277,2.23825,-5.635951,-6.641515,-1.599327,0.6743124,1.307079,0.0958738,807,-614,474
2455.281,2.242156,-5.870582,-6.876147,-1.422156,0.9448896,1.343298,0.01171791,822,-648,489
2455.285,2.246063,-6.105214,-7.235277,-1.063026,1.323058,1.365669,-0.1214401,762,-640,491
2455.289,2.249969,-6.392518,-7.465121,-0.7326257,1.595766,1.372061,-0.2290319,807,-616,489
2455.293,2.253875,-6.684611,-7.503428,-0.4070143,1.815211,1.366734,-0.3547331,832,-595,515
2455.297,2.257781,-7.120356,-7.445967,0.1580173,1.947303,1.355016,-0.5028048,793,-639,487
2455.301,2.261688,-7.733271,-7.16824,1.039084,1.960087,1.313471,-0.7478156,795,-613,499
2455.305,2.265594,-8.135497,-6.660669,1.599327,1.846103,1.267665,-0.9534117,811,-637,504
2455.309,2.2695,-8.389283,-5.645528,1.752556,1.627724,1.209075,-1.165399,820,-640,493
2455.312,2.273406,-8.671798,-4.165911,1.795651,1.355016,1.132376,-1.373126,806,-635,470
2455.316,2.277313,-9.11712,-1.733402,2.327164,0.9416938,0.999218,-1.628789,831,-615,497
2455.32,2.281219,-9.380482,0.1436521,3.260903,0.5411543,0.8692558,-1.799232,793,-621,506
2455.324,2.285125,-9.509769,1.719037,4.496311,0.0298274,0.716923,-1.951564,807,-646,473
2455.328,2.289031,-9.749189,2.724601,5.755661,-0.5795039,0.5592638,-2.081527,830,-629,491
2455.332,2.292938,-9.562441,3.308787,8.925584,-1.47113,0.2727077,-2.239186,808,-635,468
2455.336,2.296844,-9.509769,3.394978,10.86489,-2.238121,-0.06391587,-2.328668,816,-642,532
2455.34,2.30075,-9.696517,3.725378,11.31979,-3.155313,-0.4016047,-2.372344,789,-638,504
2455.344,2.304656,-11.28627,5.784391,15.13135,-4.14814,-0.8010789,-2.442651,817,-617,493
2455.348,2.308563,-14.91109,7.398083,22.74013,-5.436044,-1.911084,-2.592854,829,-620,492
2455.352,2.312469,-14.46577,9.552865,15.60541,-5.970807,-2.694054,-2.710033,813,-652,472
2455.355,2.316375,-10.99417,13.96298,4.764461,-5.513809,-2.835734,-2.619485,826,-611,480
2455.359,2.320281,-4.381389,19.38825,-4.266467,-4.245079,-2.348908,-2.346778,833,-655,443
2455.363,2.324188,-1.752556,27.99779,-21.85906,-1.841842,-0.7914915,-1.727859,820,-614,471
2455.367,2.328094,-3.471592,33.89232,-31.73754,-0.1033307,1.165399,-1.023719,812,-616,448
2455.371,2.332,-8.082825,37.97683,-35.4294,1.23038,3.170227,-0.2471413,843,-621,433
2455.375,2.335906,-15.04037,39.56658,-29.40558,2.245577,4.436826,0.5486112,812,-635,490
2455.379,2.339813,-19.06742,38.88183,-15.12657,2.911368,4.273841,1.519067,843,-599,501
2455.383,2.343719,-20.67154,35.08463,-5.736507,2.874083,3.230947,2.125203,845,-634,501
2455.387,2.347625,-20.08256,29.90358,-0.4740519,2.540656,1.960087,2.472479,826,-627,493
2455.391,2.351531,-16.20396,25.50782,1.364695,2.130529,0.9289106,2.584332,863,-642,528
2455.395,2.355438,-11.91834,21.33713,1.158794,1.69164,0.2269013,2.507632,812,-684,487
2455.398,2.359344,-8.446743,19.34994,0.7613561,1.385909,0.1512675,2.29458,774,-615,504
2455.402,2.36325,-6.004658,17.72667,0.6943185,1.080178,0.2460761,2.025068,808,-643,496
2455.406,2.367156,-4.141969,16.53915,0.914585,0.8085357,0.3760383,1.722533,842,-601,489
2455.41,2.371063,-3.720589,15.54316,1.446098,0.7350325,0.3717773,1.304949,840,-647,467
2455.414,2.374969,-3.533842,15.03559,1.80044,0.6498113,0.2886867,0.9800433,823,-629,518
2455.418,2.378875,-3.337517,14.21198,1.37906,0.4889564,0.1736381,0.6945524,808,-601,485
2455.422,2.382781,-3.141193,12.16254,-0.6751649,0.2162487,0.1033307,0.4506069,833,-635,505
2455.426,2.386688,-3.275268,10.04607,-2.422932,0.08522115,0.1150486,0.370712,819,-610,498
2455.43,2.390594,-3.643975,7.661445,-4.10845,0.1257012,0.1150486,0.3398194,792,-630,471
2455.434,2.3945,-4.596867,4.91769,-5.444415,0.3366236,0.0479369,0.3355583,822,-637,500
2455.438,2.398406,-9.902418,0.2873042,-8.499416,0.7978831,0.04367584,0.3238404,841,-656,472
2455.441,2.402313,-17.69315,-4.414908,-11.73159,1.136637,0.4207795,0.1970739,818,-655,510
2455.445,2.406219,-27.40882,-9.878476,-12.33014,1.353951,1.107875,-0.165116,837,-626,485
2455.449,2.410125,-34.08864,-13.91031,-12.3445,1.360343,1.720402,-0.7893609,807,-604,522
2455.453,2.414031,-27.32263,-15.17924,-7.04853,0.9150622,1.735316,-1.582983,848,-622,487
2455.457,2.417938,-15.78258,-13.62301,3.873818,0.2897519,0.9512811,-1.667139,795,-619,485
2455.461,2.421844,-8.882488,-12.36366,12.33493,-0.5305017,-0.2098571,-1.198422,835,-611,510
2455.465,2.42575,-7.627926,-13.09149,14.17846,-1.474326,-1.064199,-0.5550028,805,-631,513
2455.469,2.429656,-9.275137,-12.87123,10.98939,-2.37554,-0.978978,-0.3430151,803,-639,489
2455.473,2.433563,-10.85052,-7.785944,9.318233,-2.330799,-0.4687164,-0.7584683,773,-608,470
2455.477,2.437469,-12.74194,0.5650316,8.662222,-1.963282,-0.1171791,-1.216532,853,-630,490
2455.48,2.441375,-13.92947,8.75799,7.302315,-1.750229,-0.09800433,-1.449825,844,-593,474
2455.484,2.445281,-15.16966,16.34761,5.176264,-2.250904,-0.7595335,-1.546764,774,-652,473
2455.488,2.449188,-14.20719,20.57577,-4.788403,-3.368366,-0.9076053,-1.513741,815,-625,484
2455.492,2.453094,-9.342175,25.85259,-10.24718,-4.760667,-0.1778992,-1.331581,812,-636,494
2455.496,2.457,-2.916138,31.28743,-17.20952,-5.956959,0.7392935,-1.00774,838,-620,530
2455.5,2.460906,-6.095637,30.63142,-17.22868,-5.977199,1.768339,0.0479369,810,-632,468
2455.504,2.464813,-17.85596,20.76252,5.774814,-3.900998,1.805623,1.275122,830,-657,458
2455.508,2.468719,-24.43043,11.28627,24.46395,-0.9821738,0.9374327,2.067678,836,-621,514
2455.512,2.472625,-22.97476,5.190629,28.25637,1.16966,-0.3824299,2.129464,810,-629,510
2455.516,2.476531,-16.7642,-6.967127,15.66766,1.89404,-1.680987,2.041047,843,-648,483
2455.52,2.480438,-13.49372,-18.17678,-0.4213795,1.862082,-1.814145,2.079396,851,-620,501
2455.523,2.484344,-12.08593,-26.37453,-21.16474,1.521198,-0.9566075,1.818406,808,-643,515
2455.527,2.48825,-11.21923,-33.57628,-29.42953,0.5528722,-0.1257012,1.014132,805,-618,479
2455.531,2.492156,-6.349423,-38.26892,-13.29261,-0.680704,-0.1374191,-0.3632552,788,-634,469
2455.535,2.496063,-2.303222,-35.91302,0.03830723,-0.6562029,-0.9097358,-1.217597,816,-646,504
2455.539,2.499969,0.03830723,-29.34812,-0.9864111,-0.09693906,-1.14729,-1.830124,827,-631,480
2455.543,2.503875,-0.7134721,-21.9261,-7.73806,0.6593987,-0.2322276,-2.31482,789,-629,545
2455.547,2.507781,-7.311892,-14.27423,-9.753978,1.67353,1.616006,-2.851713,838,-604,497
2455.551,2.511688,-14.46098,-10.16578,-7.082049,2.028263,1.950499,-3.097789,817,-616,469
2455.555,2.515594,-19.04348,-7.091625,-4.146757,1.984588,1.272991,-3.200054,808,-615,503
2455.559,2.5195,-18.89504,-3.442862,-2.082955,1.5702,0.4474111,-3.259709,842,-615,483
2455.562,2.523406,-14.76265,2.231396,0.344765,0.8191884,0.04900216,-3.173423,858,-614,499
2455.566,2.527313,-13.46978,5.410896,-0.09576807,0.5816344,0.2151834,-2.803776,832,-652,505
2455.57,2.531219,-13.9582,7.690176,-0.914585,0.6178534,0.4474111,-2.266883,842,-638,466
2455.574,2.535125,-14.9063,8.75799,-0.6129156,0.6998787,0.3898868,-1.816276,850,-604,539
2455.578,2.539031,-14.14016,8.298303,-0.8331822,0.7627293,-0.09693906,-1.559547,850,-652,530
2455.582,2.542938,-11.46823,7.747637,-2.513912,0.6764429,-0.3440804,-1.558482,833,-646,490
2455.586,2.546844,-8.566454,7.173028,-3.213019,0.4016047,-0.3089267,-1.595766,825,-594,492
2455.59,2.55075,-7.28795,6.26802,-2.834735,0.04687164,-0.1012001,-1.609615,828,-613,518
2455.594,2.554656,-8.863335,4.012682,-1.244985,-0.3920173,0.112918,-1.600027,835,-638,462
2455.598,2.558563,-10.66377,2.260126,-0.1675941,-0.6274408,0.05006743,-1.605354,842,-630,476
2455.602,2.562469,-11.18092,0.9528923,-0.06224924,-0.7840346,-0.1363538,-1.623463,825,-614,530
2455.605,2.566375,-10.29028,0.06224924,-0.6847417,-0.870321,-0.2908172,-1.635181,823,-599,495
2455.609,2.570281,-8.887277,-0.6751649,-1.814805,-0.8745821,-0.3153183,-1.61281,880,-620,482
2455.613,2.574188,-8.647856,-1.47004,-2.403778,-0.8277105,-0.2311624,-1.571265,836,-656,468
2455.617,2.578094,-9.069236,-2.437297,-2.245761,-0.7499462,-0.1619202,-1.533981,829,-634,471
2455.621,2.582,-9.481039,-3.366248,-1.848324,-0.6572682,-0.1640507,-1.513741,838,-632,491
2455.625,2.585906,-9.47625,-4.371812,-1.714248,-0.5113269,-0.2450108,-1.51161,839,-621,504
2455.629,2.589813,-9.050082,-4.683058,-1.833958,-0.3824299,-0.2822951,-1.515871,812,-627,496
2455.633,2.593719,-8.734048,-4.793192,-1.776498,-0.2460761,-0.273773,-1.522263,836,-614,518
2455.637,2.597625,-8.748413,-4.630386,-1.661576,-0.0958738,-0.237554,-1.532916,849,-645,482
2455.641,2.601531,-8.920795,-4.003105,-1.426944,0.1193096,-0.1960087,-1.55209,851,-624,504
2455.645,2.605438,-9.074024,-3.260903,-1.403002,0.2929477,-0.2034655,-1.569135,831,-634,500
2455.648,2.609344,-9.035717,-2.557007,-1.493982,0.4676511,-0.2279666,-1.594701,827,-632,498
2455.652,2.61325,-8.916007,-1.848324,-1.704672,0.6253102,-0.2588593,-1.624528,875,-634,486
2455.656,2.617156,-8.652645,-0.794875,-1.723825,0.7872304,-0.2801645,-1.661813,858,-631,465
2455.66,2.621063,-8.532935,-0.1771709,-1.752556,0.8756474,-0.2865561,-1.678857,824,-632,493
2455.664,2.624969,-8.465897,0.4118027,-1.594538,0.9363674,-0.2972088,-1.687379,842,-670,486
2455.668,2.628875,-8.403648,1.024718,-1.374272,0.9693906,-0.3131877,-1.682053,823,-623,531
2455.672,2.632781,-8.183381,1.613692,-1.316811,0.9757822,-0.3494067,-1.655421,833,-593,485
2455.676,2.636688,-7.910442,2.035071,-1.340753,0.9512811,-0.3621899,-1.620267,870,-566,483
2455.68,2.640594,-7.599196,2.303222,-1.426944,0.9054748,-0.366451,-1.573396,873,-622,508
2455.684,2.6445,-7.335834,2.403778,-1.575385,0.84582,-0.3398194,-1.522263,856,-625,476
2455.688,2.648406,-7.177817,2.355894,-1.867477,0.7339672,-0.2695119,-1.449825,849,-614,476
2455.691,2.652313,-7.149086,2.121263,-2.015918,0.648746,-0.2002697,-1.398692,864,-662,510
2455.695,2.656219,-7.297527,1.915361,-2.073379,0.5581986,-0.1267665,-1.353951,841,-636,463
2455.699,2.660125,-7.460332,1.58975,-2.006341,0.4729774,-0.06178534,-1.310275,860,-603,515
2455.703,2.664031,-7.824251,1.235408,-1.944092,0.3771036,0.003195793,-1.263404,832,-607,452
2455.707,2.667938,-8.106767,0.9528923,-1.814805,0.3206446,0.03728426,-1.239968,855,-602,478
2455.711,2.671844,-8.33661,0.7230489,-1.690306,0.2801645,0.06711166,-1.22825,839,-648,513
2455.715,2.67575,-8.513781,0.6129156,-1.513135,0.2503371,0.08735168,-1.223989,865,-613,484
2455.719,2.679656,-8.748413,0.4070143,-1.264138,0.2279666,0.1171791,-1.220793,875,-654,481
2455.723,2.683563,-9.006987,0.2873042,-0.9337386,0.2151834,0.1374191,-1.221858,843,-627,471
2455.727,2.687469,-9.174581,0.2585738,-0.6751649,0.2024002,0.1480718,-1.225054,897,-637,490
2455.73,2.691375,-9.351752,0.2442086,-0.4309563,0.1832255,0.149137,-1.23038,866,-621,477
2455.734,2.695281,-9.418789,0.2394202,-0.1963245,0.1470065,0.1299623,-1.238903,867,-623,455
2455.738,2.699188,-9.471462,0.2106897,-0.2011129,0.1193096,0.1075917,-1.243164,899,-658,483
2455.742,2.703094,-9.586383,0.3878607,-0.2346318,0.08948221,0.07882957,-1.247425,862,-655,481
2455.746,2.707,-9.44752,0.3734955,-0.4596867,0.05858954,0.04900216,-1.246359,855,-639,473
2455.75,2.710906,-9.313444,0.4118027,-0.4118027,0.0298274,0.02343582,-1.24849,877,-604,466
2455.754,2.714813,-9.126697,0.5027823,-0.593762,0.03089267,0.008522115,-1.261273,889,-647,493
2455.758,2.718719,-8.882488,0.617704,-1.010353,0.0479369,0.01171791,-1.282578,860,-660,462
2455.762,2.722625,-8.537723,0.9528923,-1.331176,0.07669904,0.04474111,-1.296427,874,-600,452
2455.766,2.726531,-8.437167,1.374272,-1.541866,0.1384844,0.08309063,-1.312406,871,-624,473
2455.77,2.730438,-8.394071,1.810016,-1.80044,0.1928129,0.1033307,-1.324124,906,-634,529
2455.773,2.734344,-8.250419,2.173935,-2.140416,0.2545982,0.1193096,-1.337972,856,-655,478
2455.777,2.73825,-8.192958,2.547431,-2.710236,0.3323625,0.1246359,-1.376322,848,-601,460
2455.781,2.742156,-8.106767,2.829946,-2.925714,0.3717773,0.1374191,-1.402953,851,-612,496
2455.785,2.746063,-7.97748,2.8491,-3.078943,0.4079963,0.1619202,-1.444499,875,-638,515
2455.789,2.749969,-8.025364,2.8491,-3.069367,0.44315,0.1970739,-1.480718,852,-619,491
2455.793,2.753875,-8.18817,2.566584,-2.715025,0.4921522,0.2652508,-1.513741,869,-611,490
2455.797,2.757781,-8.370129,2.331952,-2.193089,0.556068,0.3067962,-1.537177,842,-615,497
2455.801,2.761688,-8.580819,2.221819,-1.73819,0.6359629,0.3206446,-1.545699,873,-634,495
2455.805,2.765594,-8.939949,1.977611,-1.244985,0.7297061,0.3131877,-1.52972,871,-614,527
2455.809,2.7695,-9.121908,1.790863,-0.7374141,0.8894958,0.2482066,-1.500958,895,-622,479
2455.812,2.773406,-9.332598,1.73819,-0.6751649,1.013066,0.1757686,-1.466869,880,-598,488
2455.816,2.777313,-9.442731,1.814805,-0.6368576,1.118528,0.09267801,-1.423193,896,-599,488
2455.82,2.781219,-9.485827,1.896208,-0.7469909,1.197357,0.001065264,-1.373126,906,-625,495
2455.824,2.785125,-9.44752,1.982399,-0.9289502,1.235707,-0.128897,-1.314536,900,-594,488
2455.828,2.789031,-9.404424,2.231396,-1.312023,1.194161,-0.2269013,-1.281513,880,-603,495
2455.832,2.792938,-9.414001,2.63841,-1.838747,1.101483,-0.298274,-1.253816,865,-642,507
2455.836,2.796844,-9.346963,3.098097,-2.360683,0.958738,-0.3419499,-1.225054,841,-639,490
2455.84,2.80075,-9.102755,3.605668,-3.08852,0.7360977,-0.3621899,-1.21014,867,-641,446
2455.844,2.804656,-8.968679,4.022259,-3.596091,0.5731123,-0.3536678,-1.214401,875,-646,462
2455.848,2.808563,-8.872911,4.458003,-3.998317,0.4101268,-0.3323625,-1.226119,871,-608,502
2455.852,2.812469,-8.805874,4.510676,-4.22816,0.257794,-0.2972088,-1.247425,901,-638,486
2455.855,2.816375,-8.829816,4.687847,-4.419696,0.08628642,-0.2354234,-1.27086,871,-634,468
2455.859,2.820281,-8.939949,4.663905,-4.276044,-0.0181095,-0.1789644,-1.285774,859,-658,481
2455.863,2.824188,-9.074024,4.548983,-4.031836,-0.08202536,-0.1267665,-1.297492,923,-600,472
2455.867,2.828094,-9.203311,4.19943,-3.744531,-0.1139833,-0.08309063,-1.300688,866,-594,474
2455.871,2.832,-9.428366,3.620033,-3.275268,-0.108657,-0.02769688,-1.294296,870,-624,487
2455.875,2.835906,-9.643844,3.256114,-2.839523,-0.07882957,0.01065264,-1.282578,900,-625,468
2455.879,2.839813,-9.907206,2.863465,-2.461239,-0.03728426,0.04687164,-1.266599,883,-644,496
2455.883,2.843719,-10.17536,2.576161,-1.939303,0.01171791,0.07030745,-1.246359,901,-607,485
2455.887,2.847625,-10.53449,2.365471,-1.177947,0.0958738,0.07882957,-1.213336,886,-614,471
2455.891,2.851531,-10.80264,2.408567,-0.6991069,0.1704423,0.05539375,-1.179248,920,-633,478
2455.895,2.855438,-10.95108,2.48997,-0.4644751,0.2545982,0.001065264,-1.143029,848,-619,489
2455.898,2.859344,-10.97023,2.585738,-0.521936,0.3451457,-0.06711166,-1.101483,883,-594,493
2455.902,2.86325,-10.90798,2.734178,-1.091756,0.4601942,-0.1512675,-1.042894,921,-633,485
2455.906,2.867156,-10.89841,2.676717,-1.675941,0.5400891,-0.2034655,-0.9970875,879,-609,500
2455.91,2.871063,-10.87446,2.557007,-2.231396,0.6199839,-0.2322276,-0.9459548,862,-626,487
2455.914,2.874969,-10.91756,2.336741,-2.777274,0.7126619,-0.273773,-0.8926916,887,-601,502
2455.918,2.878875,-10.86489,1.872266,-3.41892,0.8426242,-0.3398194,-0.8266452,913,-619,502
2455.922,2.882781,-10.74997,1.565808,-3.845088,0.938498,-0.4090615,-0.7765778,872,-625,515
2455.926,2.886688,-10.53928,1.393425,-4.22816,1.032241,-0.4804343,-0.7318367,907,-560,457
2455.93,2.890594,-10.31422,1.326388,-4.323928,1.10894,-0.5432849,-0.680704,900,-571,503
2455.934,2.8945,-10.06044,1.61848,-4.141969,1.180313,-0.6029397,-0.6125271,885,-592,492
2455.938,2.898406,-9.825804,2.097321,-3.74932,1.20801,-0.6348976,-0.5592638,849,-627,487
2455.941,2.902313,-9.667786,2.786851,-3.41892,1.211206,-0.6625945,-0.5049353,878,-634,506
2455.945,2.906219,-9.576807,3.428497,-2.987964,1.186705,-0.6881608,-0.4527374,860,-619,478
2455.949,2.910125,-9.289502,4.19943,-2.48997,1.105744,-0.6892261,-0.3813647,864,-623,475
2455.953,2.914031,-9.141062,4.754884,-2.111686,1.02585,-0.6636597,-0.334493,895,-599,493
2455.957,2.917938,-9.11712,5.123592,-1.833958,0.9416938,-0.6434197,-0.2918825,858,-599,489
2455.961,2.921844,-9.016563,5.410896,-1.608904,0.8564726,-0.6338323,-0.2524677,900,-589,511
2455.965,2.92575,-9.050082,5.540183,-1.541866,0.7446198,-0.6199839,-0.1992044,879,-627,490
2455.969,2.929656,-8.963891,5.602432,-1.594538,0.6615292,-0.5986786,-0.1576591,916,-646,477
2455.973,2.933563,-8.911219,5.516241,-1.905785,0.5858954,-0.572047,-0.1203749,903,-612,502
2455.977,2.937469,-8.901642,5.444415,-2.149993,0.5166533,-0.5422196,-0.08202536,887,-604,458
2455.98,2.941375,-8.901642,5.343858,-2.260126,0.4314321,-0.4900216,-0.01917476,896,-626,461
2455.984,2.945281,-8.954314,5.147534,-2.207454,0.3749731,-0.4484763,0.02663161,894,-633,500
2455.988,2.949188,-8.911219,5.185841,-2.169147,0.3174488,-0.4314321,0.07989483,868,-611,504
2455.992,2.953094,-9.030929,5.190629,-2.183512,0.2652508,-0.4314321,0.1342233,887,-620,464
2455.996,2.957,-9.23683,5.612009,-2.197877,0.2098571,-0.4154531,0.2087918,908,-590,504
2456,2.960906,-9.466673,6.076484,-2.240973,0.181095,-0.406931,0.2695119,866,-609,458
2456.004,2.964813,-9.749189,6.71813,-2.504335,0.1800297,-0.4122573,0.3376888,879,-633,450
2456.008,2.968719,-10.07959,7.268796,-2.600103,0.2034655,-0.4175837,0.4165184,880,-599,524
2456.012,2.972625,-10.65899,8.111555,-2.667141,0.2492719,-0.386691,0.5262406,850,-612,495
2456.016,2.976531,-11.10431,8.312668,-2.959233,0.2769688,-0.3675162,0.6274408,922,-564,503
2456.02,2.980438,-11.49217,8.116344,-3.371036,0.2609898,-0.370712,0.7424893,899,-610,494
2456.023,2.984344,-11.71243,7.450756,-3.639187,0.185356,-0.3792341,0.8532768,881,-601,466
2456.027,2.98825,-11.73159,6.737283,-3.471592,0.01704423,-0.4175837,0.9779128,874,-632,486
2456.031,2.992156,-11.58794,6.579266,-3.122039,-0.0958738,-0.4921522,1.061003,878,-625,504
2456.035,2.996063,-11.16656,6.799533,-2.796428,-0.1533981,-0.5976133,1.139833,863,-583,495
2456.039,2.999969,-10.5297,7.177817,-2.126051,-0.1587244,-0.6732471,1.212271,888,-629,461
2456.043,3.003875,-9.289502,7.584831,-1.206678,-0.1395496,-0.7360977,1.294296,891,-641,493
2456.047,3.007781,-8.178593,7.771579,-0.01436521,-0.1225054,-0.8064052,1.365669,925,-603,451
2456.051,3.011688,-7.010222,7.747637,0.9528923,-0.108657,-0.86606,1.438107,888,-625,452
2456.055,3.015594,-5.947197,7.398083,2.202666,-0.05432849,-0.9086706,1.519067,864,-628,498
2456.059,3.0195,-4.960786,6.569689,3.801992,0.1065264,-0.9566075,1.657551,857,-628,485
2456.062,3.023406,-4.371812,6.282385,4.13718,0.2492719,-0.958738,1.765143,870,-608,496
2456.066,3.027313,-4.194641,6.315904,4.304775,0.3185141,-0.9353022,1.89404,882,-642,463
2456.07,3.031219,-4.582502,6.23929,4.611232,0.2311624,-0.8873653,2.05596,894,-621,478
2456.074,3.035125,-6.157887,5.956774,4.702212,-0.07350325,-0.7659251,2.33506,869,-611,507
2456.078,3.039031,-7.896077,5.822698,4.118027,-0.3110572,-0.7041398,2.612028,858,-602,491
2456.082,3.042938,-9.859322,5.492299,3.375824,-0.4538026,-0.6423545,2.925216,907,-624,479
2456.086,3.046844,-11.95664,4.879383,2.48997,-0.4814995,-0.5944176,3.220294,890,-595,474
2456.09,3.05075,-14.99249,3.586514,1.01993,-0.3952131,-0.479369,3.52496,884,-630,490
2456.094,3.054656,-17.74103,2.264915,-0.07182605,-0.2769688,-0.3185141,3.660249,851,-635,470
2456.098,3.058563,-21.39937,0.4022259,-0.8714894,-0.1065264,-0.1246359,3.676228,882,-554,502
2456.102,3.062469,-27.81105,-2.647987,-0.9050082,0.1278317,0.06391587,3.515373,880,-595,448
2456.105,3.066375,-31.76627,-7.599196,0.09576807,0.4900216,0.1033307,2.915629,890,-630,475
2456.109,3.070281,-31.79021,-9.174581,1.034295,0.700944,-0.2002697,2.433064,879,-622,487
2456.113,3.074188,-28.31862,-9.653421,1.37906,0.8426242,-0.6998787,2.269013,879,-651,479
2456.117,3.078094,-20.28368,-10.36689,-2.240973,1.151551,-1.293231,2.457565,891,-627,514
2456.121,3.082,-17.53513,-10.67814,-4.01747,1.287905,-1.203749,2.486327,855,-596,447
2456.125,3.085906,-14.58069,-9.844957,-5.363012,1.412541,-0.7840346,2.41602,900,-617,490
2456.129,3.089813,-13.42668,-7.785944,-4.941632,1.353951,-0.2652508,2.310559,884,-609,459
2456.133,3.093719,-14.64294,-5.439626,-3.41892,0.9970875,0.1139833,2.249838,835,-607,458
2456.137,3.097625,-16.51041,-2.432509,-2.42772,0.6519418,0.2460761,2.223207,829,-606,479
2456.141,3.101531,-18.26776,-0.2154781,-1.977611,0.3430151,0.1597897,2.231729,848,-554,509
2456.145,3.105438,-19.10094,1.900996,-1.541866,0.1629855,0.003195793,2.251969,883,-598,534
2456.148,3.109344,-18.28212,4.10845,-0.6991069,0.1608549,-0.205596,2.306298,842,-652,452
2456.152,3.11325,-16.38592,5.080496,0.02394202,0.3131877,-0.3813647,2.360626,831,-620,475
2456.156,3.117156,-14.26465,5.525817,0.320823,0.5060006,-0.5091964,2.408563,873,-630,478
2456.16,3.121063,-12.3876,5.3678,0.3064578,0.6945524,-0.5368933,2.445847,876,-634,475
2456.164,3.124969,-11.04206,4.845864,0.1628057,0.9001484,-0.4495416,2.472479,848,-628,496
2456.168,3.128875,-10.64462,4.22816,0.2873042,0.9832391,-0.2727077,2.494849,877,-625,485
2456.172,3.132781,-10.63983,3.552995,0.4596867,1.029045,-0.1075917,2.511894,818,-621,475
2456.176,3.136688,-10.74039,2.868254,0.5889736,1.026915,0.04261058,2.514024,879,-602,489
2456.18,3.140594,-11.07079,1.747767,0.5793968,0.9981528,0.1768339,2.502306,856,-584,453
2456.184,3.1445,-11.23359,0.9911995,0.5171476,0.9629991,0.237554,2.481001,852,-628,472
2456.188,3.148406,-11.38203,0.1723825,0.4261679,0.9171927,0.2769688,2.453304,837,-611,493
2456.191,3.152313,-11.3533,-0.5267244,0.4213795,0.8586031,0.2822951,2.430933,875,-631,474
2456.195,3.156219,-11.05642,-1.096544,0.5315128,0.7616641,0.2588593,2.41602,846,-638,494
2456.199,3.160125,-10.87446,-1.47004,0.4309563,0.6913566,0.2119876,2.409628,850,-633,475
2456.203,3.164031,-10.54885,-1.752556,0.4932055,0.6189186,0.1778992,2.402171,834,-634,459
2456.207,3.167938,-10.20409,-1.905785,0.3878607,0.5581986,0.1427454,2.389388,847,-607,502
2456.211,3.171844,-9.873688,-2.020706,0.1867477,0.4729774,0.1502023,2.369148,855,-639,492
2456.215,3.17575,-9.533711,-2.183512,0.2106897,0.4143879,0.1715076,2.343582,873,-619,462
2456.219,3.179656,-9.251195,-2.212242,0.1963245,0.3589941,0.1917476,2.306298,856,-616,488
2456.223,3.183563,-8.954314,-2.121263,0.3064578,0.2886867,0.2024002,2.272209,847,-617,466
2456.227,3.187469,-8.599972,-2.015918,0.3495534,0.1864213,0.2066613,2.244512,849,-604,503
2456.23,3.191375,-8.374917,-2.06859,0.3064578,0.1033307,0.2002697,2.220011,860,-628,486
2456.234,3.195281,-8.274361,-1.991976,0.2059013,0.02769688,0.2194445,2.179531,828,-610,491
2456.238,3.199188,-8.130709,-1.8579,0.2011129,-0.04474111,0.2194445,2.127333,865,-623,503
2456.242,3.203094,-7.991845,-1.656788,0.1580173,-0.1427454,0.2599245,2.062352,825,-595,483
2456.246,3.207,-7.848193,-1.546654,0.1819593,-0.1970739,0.2599245,2.004828,839,-606,434
2456.25,3.210906,-7.752425,-1.37906,0.248997,-0.2482066,0.2865561,1.944108,847,-634,518
2456.254,3.214813,-7.584831,-1.163582,0.2681506,-0.2790993,0.2972088,1.878061,836,-610,490
2456.258,3.218719,-7.220912,-0.842759,0.2011129,-0.3089267,0.3046656,1.806688,839,-633,494
2456.262,3.222625,-6.95755,-0.6081272,0.1723825,-0.3366236,0.3334278,1.760882,855,-612,460
2456.266,3.226531,-6.607997,-0.3926491,0.09576807,-0.3621899,0.3462109,1.726794,833,-613,458
2456.27,3.230438,-6.368576,-0.2633622,0.004788403,-0.4005394,0.3802994,1.695901,848,-646,459
2456.273,3.234344,-6.090849,-0.02873042,-0.09097966,-0.4452805,0.4410195,1.658617,836,-608,477
2456.277,3.23825,-5.947197,-0.06703765,-0.1771709,-0.4761732,0.4804343,1.628789,849,-622,466
2456.281,3.242156,-5.841852,-0.04788403,-0.2298434,-0.5081311,0.5432849,1.601092,808,-635,497
2456.285,3.246063,-5.81791,-0.06224924,-0.320823,-0.5294364,0.5954828,1.563808,821,-612,486
2456.289,3.249969,-5.899313,-0.2394202,-0.2920926,-0.5496764,0.6625945,1.515871,827,-647,526
2456.293,3.253875,-5.899313,-0.4118027,-0.2346318,-0.5592638,0.7115966,1.478587,836,-605,462
2456.297,3.257781,-5.93762,-0.5985504,-0.2394202,-0.5624596,0.7286409,1.432781,827,-633,466
2456.301,3.261688,-5.932832,-0.9097966,-0.3064578,-0.5592638,0.753142,1.394431,840,-616,495
2456.305,3.265594,-5.947197,-1.16837,-0.4070143,-0.5550028,0.7904262,1.340103,851,-659,503
2456.309,3.2695,-5.956774,-1.460463,-0.521936,-0.5571333,0.8000136,1.293231,840,-601,505
2456.312,3.273406,-5.880159,-1.675941,-0.593762,-0.5763081,0.8266452,1.238903,795,-552,507
2456.316,3.277313,-5.93762,-1.944092,-0.7422025,-0.6061355,0.8767126,1.180313,848,-563,499
2456.32,3.281219,-5.923255,-2.25055,-0.8619126,-0.6391587,0.9129316,1.094027,819,-622,479
2456.324,3.285125,-5.832275,-2.494758,-0.9911995,-0.6530071,0.9534117,1.02585,806,-630,489
2456.328,3.289031,-5.770026,-2.667141,-1.158794,-0.6625945,1.004544,0.9608685,858,-634,498
2456.332,3.292938,-5.631162,-2.930503,-1.388637,-0.6498113,1.052481,0.8937569,853,-591,519
2456.336,3.296844,-5.444415,-3.203442,-1.675941,-0.6146576,1.132376,0.7882957,844,-590,489
2456.34,3.30075,-5.425261,-3.428497,-1.924938,-0.5784386,1.216532,0.700944,819,-623,470
2456.344,3.304656,-5.372589,-3.620033,-1.963245,-0.5241101,1.302818,0.6029397,844,-600,474
2456.348,3.308563,-5.348647,-3.773262,-1.915361,-0.4569984,1.372061,0.5006743,796,-614,520
2456.352,3.312469,-5.27682,-4.060566,-1.867477,-0.3557983,1.469,0.3675162,828,-606,478
2456.355,3.316375,-5.300762,-4.285621,-1.771709,-0.2769688,1.530785,0.2673814,867,-600,482
2456.359,3.320281,-5.401319,-4.491522,-1.747767,-0.1917476,1.577657,0.169377,846,-644,487
2456.363,3.324188,-5.511452,-4.721366,-1.781286,-0.08841695,1.622398,0.07563377,818,-577,481
2456.367,3.328094,-5.861006,-4.994305,-1.613692,0.1065264,1.6714,-0.02343582,806,-645,479
2456.371,3.332,-6.162675,-5.15711,-1.513135,0.2972088,1.683118,-0.08948221,816,-595,478
2456.375,3.335906,-6.603208,-5.348647,-1.331176,0.5209143,1.675661,-0.1533981,847,-582,463
2456.379,3.339813,-7.07726,-5.60722,-1.221043,0.7669904,1.650095,-0.2237055,846,-612,490
2456.383,3.343719,-7.704541,-5.961562,-1.063026,1.124919,1.609615,-0.3366236,825,-597,489
2456.387,3.347625,-8.063671,-6.138733,-0.9576807,1.385909,1.5702,-0.4378237,845,-604,523
2456.391,3.351531,-8.259996,-6.359,-0.8714894,1.614941,1.523328,-0.5496764,856,-609,471
2456.395,3.355438,-8.30788,-6.402095,-0.5075708,1.781122,1.451955,-0.6828345,815,-631,467
2456.398,3.359344,-8.30788,-6.301539,0.1532289,1.845038,1.313471,-0.8969527,818,-640,477
2456.402,3.36325,-8.370129,-6.124368,0.9289502,1.742773,1.183509,-1.082309,820,-647,481
2456.406,3.367156,-8.274361,-5.784391,1.82917,1.488174,1.021589,-1.274056,841,-611,495
2456.41,3.371063,-8.044518,-5.090073,2.561796,1.06846,0.8255799,-1.460478,848,-582,500
2456.414,3.374969,-7.393295,-3.414132,3.236961,0.3376888,0.5571333,-1.6714,809,-591,480
2456.418,3.378875,-7.182605,-1.647211,3.265691,-0.2503371,0.3920173,-1.800297,850,-614,504
2456.422,3.382781,-7.354988,-0.06224924,3.126827,-0.8404936,0.2854909,-1.918541,814,-625,467
2456.426,3.386688,-7.651869,1.206678,3.399766,-1.411475,0.237554,-2.034655,848,-633,477
2456.43,3.390594,-7.920019,1.877054,5.343858,-2.120941,0.1352886,-2.163552,862,-623,491
2456.434,3.3945,-7.915231,1.575385,8.164228,-2.713229,-0.04261058,-2.224272,890,-638,489
2456.438,3.398406,-8.63828,0.4788403,9.787496,-3.444,-0.2769688,-2.259426,833,-617,474
2456.441,3.402313,-10.43872,1.824382,10.99417,-4.381433,-0.4783037,-2.376605,823,-600,520
2456.445,3.406219,-13.89595,3.251326,18.29649,-5.585181,-1.162203,-2.540656,900,-626,475
2456.449,3.410125,-13.6278,5.683835,14.46098,-6.319149,-1.938781,-2.762231,816,-608,478
2456.453,3.414031,-11.33415,12.44985,6.349423,-6.361759,-2.248773,-2.750513,851,-591,514
2456.457,3.417938,-9.054871,19.95328,2.30801,-5.77906,-2.030394,-2.457565,830,-604,494
2456.461,3.421844,-8.729259,33.21715,-15.06911,-4.406999,-0.7680557,-1.843973,852,-622,492
2456.465,3.42575,-11.03727,41.80276,-25.3929,-3.217099,1.06633,-1.161138,860,-610,511
2456.469,3.429656,-13.80976,49.56955,-24.14792,-1.863147,2.776079,-0.2471413,838,-628,533
2456.473,3.433563,-17.78413,54.64047,-15.76342,-0.3888215,3.351322,0.8671253,854,-623,482
2456.477,3.437469,-20.98757,52.95016,-6.066907,1.545699,2.443717,2.226403,855,-636,491
2456.48,3.441375,-20.81998,45.21689,-0.7996634,2.665292,1.332646,2.906041,854,-631,485
2456.484,3.445281,-17.06108,34.58664,1.580173,3.245861,0.5379585,3.129747,869,-598,502
2456.488,3.449188,-10.37647,24.63155,2.892196,3.351322,0.149137,3.042395,821,-637,501
2456.492,3.453094,-6.675034,15.42824,2.011129,2.932673,0.1022654,2.740925,848,-640,491
2456.496,3.457,-4.276044,10.79785,0.5267244,2.290319,0.2972088,2.396845,828,-613,493
2456.5,3.460906,-3.433285,8.020576,-0.4501099,1.54996,0.572047,1.973935,846,-621,498
2456.504,3.464813,-4.050989,6.464344,-0.4932055,0.5741775,0.8415589,1.376322,823,-628,475
2456.508,3.468719,-5.003881,5.985504,0.1484405,-0.1161138,0.8767126,0.9502159,859,-628,513
2456.512,3.472625,-5.78918,5.913678,0.07182605,-0.8000136,0.8490158,0.5731123,879,-615,490
2456.516,3.476531,-6.215348,5.688623,-1.11091,-1.364604,0.7978831,0.278034,840,-614,507
2456.52,3.480438,-6.038177,5.181052,-3.198653,-1.657551,0.7297061,0.03941478,836,-603,489
2456.523,3.484344,-5.894524,4.764461,-3.883395,-1.45089,0.6466155,-0.03195793,856,-606,516
2456.527,3.48825,-7.206547,3.782839,-4.481946,-0.90654,0.5038701,-0.02343582,846,-621,512
2456.531,3.492156,-11.74116,1.335965,-6.670246,-0.1395496,0.5028048,-0.004261058,844,-622,491
2456.535,3.496063,-21.97877,-4.577714,-9.366117,1.034372,0.9150622,-0.1512675,865,-623,505
2456.539,3.499969,-30.4303,-9.591172,-10.68293,1.839712,1.343298,-0.5102617,815,-622,487
2456.543,3.503875,-31.50291,-12.88559,-10.01255,2.37554,1.542503,-1.031176,824,-627,489
2456.547,3.507781,-23.80794,-13.60385,-3.620033,2.635464,1.054612,-1.352886,851,-640,496
2456.551,3.511688,-12.31098,-12.6749,6.823475,2.237055,-0.2822951,-0.8713863,845,-607,490
2456.555,3.515594,-7.953538,-13.80497,11.43471,1.375256,-1.082309,-0.08522115,876,-620,484
2456.559,3.5195,-7.091625,-15.53358,11.87524,0.4601942,-1.212271,0.4506069,842,-606,492
2456.562,3.523406,-8.360552,-13.52245,10.60152,0.04261058,-0.6956177,0.3760383,812,-606,514
2456.566,3.527313,-12.63181,-3.62961,8.245631,0.2141182,0.1576591,-0.3579289,828,-604,489
2456.57,3.531219,-16.33803,4.932055,9.217676,0.2194445,0.5251754,-0.9012137,865,-627,476
2456.574,3.535125,-17.57344,12.55998,7.536947,-0.2545982,0.5006743,-1.275122,895,-622,535
2456.578,3.539031,-17.33881,17.66442,5.899313,-1.120658,0.1320928,-1.44876,820,-572,510
2456.582,3.542938,-12.41154,25.58923,-7.800309,-2.400041,-0.5134575,-1.455151,833,-643,503
2456.586,3.546844,-4.568137,35.65924,-17.74582,-3.813647,-0.01704423,-1.260208,870,-618,488
2456.59,3.55075,0.8475474,42.60242,-26.01061,-5.361476,0.8777779,-0.7648599,833,-608,501
2456.594,3.554656,-2.786851,38.44609,-28.01695,-6.063485,1.863147,0.2652508,800,-591,522
2456.598,3.558563,-18.52154,15.93581,6.052542,-4.24934,1.946238,2.140116,855,-595,511
2456.602,3.562469,-26.13511,3.08852,29.87006,-1.818406,0.6892261,2.703641,863,-620,516
2456.605,3.566375,-23.5781,-2.580949,33.25067,0.03621899,-0.8724516,2.387258,880,-590,485
2456.609,3.570281,-16.12734,-8.935161,23.30995,0.8554073,-1.791775,2.080461,839,-620,498
2456.613,3.574188,-11.37246,-21.35149,4.683058,1.515871,-1.824798,2.266883,808,-625,479
2456.617,3.578094,-11.89439,-28.46227,-18.28212,1.743838,-1.042894,2.196575,855,-605,518
2456.621,3.582,-11.99016,-34.90267,-31.99611,1.163269,-0.0958738,1.400823,855,-610,491
2456.625,3.585906,-8.920795,-39.04464,-24.19101,0.4388889,0.03834952,0.1704423,862,-593,490
2456.629,3.589813,-2.604891,-37.33039,-2.164358,0.09054748,-1.341168,-1.135572,842,-614,508
2456.633,3.593719,0.9528923,-30.17173,2.341529,0.4665858,-1.787514,-1.764078,804,-586,495
2456.637,3.597625,1.958457,-21.28924,-6.909666,1.016262,-0.8735168,-2.341451,839,-660,489
2456.641,3.601531,-1.465251,-14.93024,-14.11621,1.63305,0.9182579,-2.87941,825,-651,484
2456.645,3.605438,-12.77546,-9.706094,-11.32457,2.327603,2.356365,-3.468501,838,-620,497
2456.648,3.609344,-20.57098,-6.517017,-7.37893,2.35743,1.910019,-3.818973,856,-647,509
2456.652,3.61325,-22.69703,-2.135628,-4.424485,1.747034,0.8788432,-4.055462,841,-604,512
2456.656,3.617156,-19.12009,2.782062,0.4979939,0.7147924,0.1619202,-4.084224,836,-625,483
2456.66,3.621063,-14.59984,8.312668,3.241749,-0.2034655,0.07989483,-3.562244,853,-644,494
2456.664,3.624969,-14.88715,11.61188,1.254562,-0.2087918,0.4218447,-2.764361,860,-631,499
2456.668,3.628875,-16.06988,13.01009,0.5363012,0.08202536,0.5422196,-1.956891,879,-602,513
2456.672,3.632781,-15.78737,11.97101,-0.07182605,0.4314321,0.1842907,-1.474326,857,-592,468
2456.676,3.636688,-11.89918,8.710106,-3.883395,0.5869607,-0.3781689,-1.381648,877,-595,509
2456.68,3.640594,-8.5473,6.871359,-3.428497,0.4985438,-0.4133226,-1.412541,844,-624,484
2456.684,3.6445,-7.110779,5.837064,-1.762132,0.2407498,-0.1981392,-1.395496,811,-619,490
2456.688,3.648406,-8.130709,4.189853,-0.1388637,-0.2503371,0.0298274,-1.365669,905,-603,513
2456.691,3.652313,-10.74997,1.283292,0.2920926,-0.8447547,-0.002130529,-1.378452,850,-593,520
2456.695,3.656219,-11.11867,-0.1675941,-0.7230489,-1.04609,-0.1789644,-1.454086,833,-649,481
2456.699,3.660125,-10.0748,-0.6081272,-1.484405,-1.071656,-0.3238404,-1.547829,870,-588,551
2456.703,3.664031,-8.839393,-0.6847417,-2.360683,-1.015197,-0.3611246,-1.593636,862,-616,498
2456.707,3.667938,-8.178593,-1.656788,-3.021482,-0.9097358,-0.2620551,-1.564873,828,-586,516
2456.711,3.671844,-8.451532,-2.87783,-2.691083,-0.7882957,-0.1938781,-1.547829,856,-603,544
2456.715,3.67575,-8.748413,-3.912126,-2.231396,-0.6338323,-0.1789644,-1.569135,859,-599,504
2456.719,3.679656,-8.844181,-4.568137,-2.030283,-0.4719121,-0.2066613,-1.600027,835,-592,521
2456.723,3.683563,-8.556877,-5.224148,-1.824382,-0.2492719,-0.2279666,-1.622398,841,-627,516
2456.727,3.687469,-8.537723,-5.401319,-1.843535,-0.07456851,-0.2119876,-1.634116,847,-600,482
2456.73,3.691375,-8.69574,-5.233725,-1.742979,0.0958738,-0.1832255,-1.656486,813,-632,505
2456.734,3.695281,-8.992621,-4.582502,-1.647211,0.2588593,-0.1715076,-1.669269,879,-625,496
2456.738,3.699188,-9.203311,-3.332729,-1.58975,0.4612595,-0.1864213,-1.683118,821,-607,506
2456.742,3.703094,-9.246407,-2.327164,-1.671153,0.5869607,-0.2087918,-1.690575,892,-612,475
2456.746,3.707,-9.251195,-1.369483,-1.752556,0.700944,-0.2237055,-1.700162,893,-606,524
2456.75,3.710906,-9.093178,-0.4453215,-1.781286,0.8000136,-0.2354234,-1.708684,899,-647,500
2456.754,3.714813,-9.006987,0.7278373,-1.723825,0.9150622,-0.2588593,-1.71188,853,-600,476
2456.758,3.718719,-8.801085,1.460463,-1.580173,0.9853696,-0.2897519,-1.703358,835,-601,506
2456.762,3.722625,-8.566454,2.015918,-1.302446,1.039698,-0.3334278,-1.685248,843,-626,496
2456.766,3.726531,-8.279149,2.418144,-1.278504,1.06633,-0.3739078,-1.663943,839,-597,530
2456.77,3.730438,-7.872135,2.810793,-1.316811,1.059938,-0.3984089,-1.638377,875,-596,476
2456.773,3.734344,-7.580042,2.868254,-1.460463,1.015197,-0.3824299,-1.613876,861,-613,507
2456.777,3.73825,-7.398083,2.868254,-1.537077,0.9374327,-0.3494067,-1.586179,901,-610,498
2456.781,3.742156,-7.273585,2.63841,-1.704672,0.8372978,-0.3057309,-1.560612,880,-579,474
2456.785,3.746063,-7.402872,2.317587,-1.848324,0.684965,-0.2386192,-1.524393,876,-580,491
2456.789,3.749969,-7.517793,1.953669,-1.987187,0.5603291,-0.1960087,-1.49137,863,-605,525
2456.793,3.753875,-7.637503,1.61848,-1.94888,0.4388889,-0.1587244,-1.460478,912,-590,510
2456.797,3.757781,-7.762002,1.240196,-1.795651,0.3206446,-0.1257012,-1.432781,884,-605,529
2456.801,3.761688,-7.991845,0.7422025,-1.580173,0.1864213,-0.0809601,-1.411475,835,-601,512
2456.805,3.765594,-8.169016,0.3543418,-1.431733,0.1065264,-0.04261058,-1.404019,906,-630,515
2456.809,3.7695,-8.360552,0.1675941,-1.096544,0.04474111,-0.004261058,-1.405084,882,-559,547
2456.812,3.773406,-8.45632,-0.07661445,-0.7038953,-0.003195793,0.02769688,-1.411475,902,-613,508
2456.816,3.777313,-8.743624,-0.2059013,-0.1963245,-0.03728426,0.04687164,-1.419997,843,-616,517
2456.82,3.781219,-9.030929,-0.4022259,0.1340753,-0.04900216,0.04367584,-1.419997,880,-628,530
2456.824,3.785125,-9.217676,-0.3734955,0.4357447,-0.05965481,0.02769688,-1.418932,882,-572,513
2456.828,3.789031,-9.433155,-0.4165911,0.5746084,-0.07030745,0.008522115,-1.422128,902,-636,488
2456.832,3.792938,-9.500192,-0.1819593,0.6272808,-0.1001349,-0.01278317,-1.421063,910,-625,520
2456.836,3.796844,-9.452308,-0.004788403,0.5841852,-0.1299623,-0.02343582,-1.412541,853,-596,521
2456.84,3.80075,-9.418789,0.3256114,0.4644751,-0.1470065,-0.03089267,-1.404019,886,-611,516
2456.844,3.804656,-9.083601,0.617704,0.4788403,-0.1512675,-0.03408846,-1.396562,868,-588,523
2456.848,3.808563,-8.892065,1.206678,0.03830723,-0.1331581,-0.05858954,-1.393366,868,-577,509
2456.852,3.812469,-8.652645,1.666364,-0.4692635,-0.1097222,-0.04687164,-1.382713,859,-604,489
2456.855,3.816375,-8.288726,2.197877,-0.9433155,-0.08309063,-0.01917476,-1.368865,906,-584,514
2456.859,3.820281,-8.010999,2.671929,-1.479617,-0.0479369,0.01917476,-1.357147,886,-598,509
2456.863,3.824188,-7.809886,3.294421,-1.934515,-0.02450108,0.07563377,-1.339037,856,-587,491
2456.867,3.828094,-7.747637,3.677494,-2.408567,0.007456851,0.1107875,-1.337972,881,-616,504
2456.871,3.832,-7.714118,4.007894,-2.686294,0.03941478,0.1533981,-1.335842,862,-611,539
2456.875,3.835906,-7.603984,3.916914,-2.887407,0.08415589,0.1981392,-1.339037,915,-605,522
2456.879,3.839813,-7.685387,3.744531,-2.762909,0.1459412,0.221575,-1.341168,850,-626,544
2456.883,3.843719,-7.838616,3.500323,-2.499547,0.2279666,0.2450108,-1.339037,869,-609,497
2456.887,3.847625,-8.169016,3.251326,-2.054225,0.3376888,0.2631203,-1.334776,866,-629,513
2456.891,3.851531,-8.571242,3.05979,-1.671153,0.515588,0.2716424,-1.319863,853,-604,518
2456.895,3.855438,-8.844181,2.964022,-1.599327,0.6519418,0.2652508,-1.295362,874,-641,498
2456.898,3.859344,-9.011775,2.791639,-1.637634,0.7978831,0.2460761,-1.271926,895,-608,513
2456.902,3.86325,-9.002198,2.523489,-1.862689,0.9331716,0.2183792,-1.24849,878,-562,482
2456.906,3.867156,-8.99741,2.231396,-1.991976,1.083374,0.1896171,-1.23038,910,-619,518
2456.91,3.871063,-9.021352,1.900996,-2.092532,1.154747,0.1842907,-1.216532,857,-598,501
2456.914,3.874969,-9.179369,1.584961,-2.15957,1.1899,0.1778992,-1.209075,868,-597,507
2456.918,3.878875,-9.418789,1.388637,-2.30801,1.176052,0.1608549,-1.205879,856,-582,506
2456.922,3.882781,-9.83538,1.307234,-2.561796,1.08657,0.1054612,-1.211206,914,-628,502
2456.926,3.886688,-10.05086,1.235408,-2.75812,0.9757822,0.04474111,-1.217597,863,-610,511
2456.93,3.890594,-10.08438,1.403002,-3.093309,0.84582,-0.02024002,-1.233576,896,-630,518
2456.934,3.8945,-10.08917,1.513135,-3.347094,0.7030745,-0.07243798,-1.254882,883,-593,494
2456.938,3.898406,-10.01255,1.661576,-3.495534,0.531567,-0.1203749,-1.294296,913,-625,521
2456.941,3.902313,-9.92636,1.8579,-3.462016,0.4197142,-0.144876,-1.334776,887,-601,542
2456.945,3.906219,-9.883264,2.03986,-3.313575,0.3238404,-0.1544633,-1.386974,885,-592,554
2456.949,3.910125,-9.931148,2.226608,-2.920926,0.2514024,-0.1619202,-1.429585,882,-609,488
2456.953,3.914031,-9.955091,2.422932,-2.341529,0.1981392,-0.1736381,-1.486044,905,-597,484
2456.957,3.917938,-10.14184,2.633622,-1.987187,0.1800297,-0.1747034,-1.515871,884,-626,477
2456.961,3.921844,-10.10832,2.715025,-1.632846,0.1778992,-0.1640507,-1.536111,885,-567,514
2456.965,3.92575,-10.07001,2.63841,-1.364695,0.1938781,-0.1502023,-1.546764,883,-607,487
2456.969,3.929656,-10.07001,2.394202,-1.173159,0.2439456,-0.1267665,-1.54996,883,-600,530
2456.973,3.933563,-10.12747,2.169147,-1.034295,0.298274,-0.1171791,-1.553156,899,-552,512
2456.977,3.937469,-10.24718,1.987187,-0.9911995,0.3600594,-0.1001349,-1.544633,875,-596,487
2456.98,3.941375,-10.4866,1.881843,-0.9385271,0.4261058,-0.08841695,-1.533981,938,-640,491
2456.984,3.945281,-10.60631,1.934515,-1.053449,0.5187838,-0.07882957,-1.50948,913,-608,530
2456.988,3.949188,-10.64462,2.149993,-1.28808,0.5890912,-0.1075917,-1.488174,887,-570,534
2456.992,3.953094,-10.6925,2.509123,-1.642422,0.660464,-0.1544633,-1.459412,863,-606,512
2456.996,3.957,-10.57279,2.949656,-2.059013,0.7233146,-0.2269013,-1.424259,885,-572,511
2457,3.960906,-10.44351,3.53863,-2.724601,0.7819041,-0.2993393,-1.370995,898,-594,511
2457.004,3.964813,-10.22803,3.926491,-3.284845,0.8064052,-0.3355583,-1.319863,923,-587,493
2457.008,3.968719,-10.18493,4.237737,-3.758897,0.813862,-0.3685815,-1.262338,914,-615,520
2457.012,3.972625,-10.10353,4.400543,-4.19943,0.8191884,-0.406931,-1.200553,881,-597,499
2457.016,3.976531,-9.988609,4.362235,-4.635174,0.8202536,-0.4655206,-1.112136,884,-616,494
2457.02,3.980438,-9.878476,4.146757,-4.951209,0.813862,-0.4974785,-1.040763,900,-612,504
2457.023,3.984344,-9.730036,3.96001,-5.090073,0.8053399,-0.5134575,-0.9672601,889,-528,506
2457.027,3.98825,-9.504981,3.892972,-4.927267,0.7872304,-0.5305017,-0.8980179,900,-572,505
2457.031,3.992156,-9.308656,3.955221,-4.343082,0.7499462,-0.5528722,-0.8021441,911,-600,510
2457.035,3.996063,-9.069236,4.209007,-3.586514,0.7062703,-0.5592638,-0.7254451,889,-596,490
2457.039,3.999969,-8.863335,4.548983,-2.719813,0.6380934,-0.5496764,-0.6498113,902,-564,544
2457.043,4.003875,-8.700529,4.970363,-1.80044,0.5571333,-0.5326322,-0.5763081,884,-572,471
2457.047,4.007781,-8.566454,5.631162,-0.7852981,0.4410195,-0.5177185,-0.4783037,905,-612,484
2457.051,4.011688,-8.499416,5.947197,-0.2873042,0.3557983,-0.4900216,-0.4101268,932,-570,488
2457.055,4.015594,-8.42759,6.090849,0.07661445,0.2812298,-0.4463458,-0.3430151,906,-577,502
2457.059,4.0195,-8.432378,6.052542,0.1628057,0.2194445,-0.4143879,-0.2759035,907,-550,495
2457.062,4.023406,-8.5473,5.712565,-0.07661445,0.1672465,-0.3824299,-0.1928129,928,-561,488
2457.066,4.027313,-8.671798,5.3678,-0.4213795,0.165116,-0.3494067,-0.1267665,896,-581,495
2457.07,4.031219,-8.978256,4.927267,-0.818817,0.1874865,-0.3483415,-0.05432849,896,-609,516
2457.074,4.035125,-9.131485,4.477157,-1.431733,0.2386192,-0.3696468,0.02130529,890,-587,521
2457.078,4.039031,-9.495404,4.046201,-2.413355,0.3195793,-0.390952,0.1182444,900,-577,499
2457.082,4.042938,-9.763554,3.821146,-3.122039,0.3824299,-0.4218447,0.1874865,888,-597,468
2457.086,4.046844,-9.998186,4.003105,-3.945644,0.4356932,-0.4601942,0.2567287,858,-550,508
2457.09,4.05075,-10.43393,4.659116,-4.635174,0.4868258,-0.4697816,0.3227751,901,-603,494
2457.094,4.054656,-11.20486,6.210559,-4.496311,0.5677859,-0.4719121,0.4335626,909,-587,505
2457.098,4.058563,-11.74116,7.292738,-4.084508,0.6423545,-0.5038701,0.5496764,906,-615,484
2457.102,4.062469,-11.87045,7.781155,-3.873818,0.7030745,-0.5422196,0.6913566,899,-583,470
2457.105,4.066375,-11.4778,7.508216,-3.768473,0.7073356,-0.5933523,0.8341021,940,-627,490
2457.109,4.070281,-10.75954,6.445191,-3.715801,0.5912218,-0.6455502,0.9981528,916,-582,483
2457.113,4.074188,-10.51533,6.23929,-3.605668,0.4495416,-0.624245,1.0887,928,-577,515
2457.117,4.078094,-10.37168,6.689399,-2.911349,0.330232,-0.6040049,1.183509,918,-609,478
2457.121,4.082,-10.28549,7.455544,-1.766921,0.257794,-0.6380934,1.292166,859,-583,473
2457.125,4.085906,-9.409213,8.556877,-0.5746084,0.2322276,-0.7659251,1.437042,884,-564,518
2457.129,4.089813,-8.42759,9.050082,0.2202666,0.2354234,-0.870321,1.527589,875,-596,522
2457.133,4.093719,-7.393295,9.284714,1.043872,0.2460761,-0.938498,1.596831,864,-602,481
2457.137,4.097625,-6.382942,9.260772,1.819593,0.2311624,-0.958738,1.665008,889,-609,476
2457.141,4.101531,-5.363012,8.920795,2.82037,0.1235707,-0.9928265,1.801362,886,-584,505
2457.145,4.105438,-5.0374,8.293515,3.620033,0.006391587,-1.015197,1.93452,883,-612,479
2457.148,4.109344,-4.975151,7.694964,4.314351,-0.07350325,-1.037568,2.101767,886,-606,510
2457.152,4.11325,-5.200206,7.302315,4.089296,-0.1075917,-1.021589,2.299906,852,-582,508
2457.156,4.117156,-6.009446,7.570466,2.700659,-0.2024002,-0.8223841,2.607767,889,-560,464
2457.16,4.121063,-7.216124,7.49864,1.728614,-0.4048005,-0.5848302,2.875149,891,-595,502
2457.164,4.124969,-8.738836,6.967127,1.201889,-0.684965,-0.3579289,3.155313,872,-599,521
2457.168,4.128875,-10.42914,6.023811,0.8283938,-0.9438243,-0.1981392,3.408846,906,-587,492
2457.172,4.132781,-12.95263,4.323928,-1.034295,-1.10894,-0.09480853,3.641074,900,-619,494
2457.176,4.136688,-15.22233,3.002329,-2.264915,-1.041829,-0.05645902,3.70499,903,-634,492
2457.18,4.140594,-18.26776,1.412579,-2.681506,-0.8522115,-0.007456851,3.670901,923,-611,469
2457.184,4.1445,-22.34748,-0.5554548,-2.408567,-0.5933523,0.03728426,3.517503,873,-595,488
2457.188,4.148406,-28.9028,-3.921702,-0.8858546,-0.2237055,0.0330232,3.065831,865,-641,487
2457.191,4.152313,-31.74233,-6.157887,0.5171476,-0.03195793,-0.1395496,2.599245,848,-606,475
2457.195,4.156219,-31.03843,-7.359776,1.273715,0.03728426,-0.4783037,2.280731,846,-618,493
2457.199,4.160125,-26.21172,-8.255207,0.7613561,0.04580637,-0.8681905,2.257295,856,-597,505
2457.203,4.164031,-22.06496,-9.533711,-2.298434,0.1299623,-1.084439,2.401106,880,-594,533
2457.207,4.167938,-18.48324,-9.533711,-4.544195,0.1704423,-0.8809737,2.393649,899,-620,498
2457.211,4.171844,-16.30451,-8.121132,-5.477933,0.08202536,-0.4878911,2.304167,846,-644,487
2457.215,4.17575,-15.78258,-5.72693,-5.224148,-0.1299623,-0.1267665,2.234925,834,-572,526
2457.219,4.179656,-16.66364,-2.60968,-3.912126,-0.4708469,0.09267801,2.237055,896,-631,491
2457.223,4.183563,-18.05707,-0.7326257,-3.098097,-0.6700513,0.05645902,2.27434,899,-612,488
2457.227,4.187469,-19.10573,0.6799533,-2.499547,-0.7648599,-0.06498113,2.310559,862,-593,456
2457.23,4.191375,-19.13446,1.790863,-1.671153,-0.7179882,-0.2066613,2.343582,844,-591,485
2457.234,4.195281,-17.80328,2.87783,-0.7996634,-0.4612595,-0.4143879,2.393649,905,-599,478
2457.238,4.199188,-15.95975,3.289633,-0.225055,-0.1949434,-0.5209143,2.441586,861,-604,461
2457.242,4.203094,-14.21198,3.260903,0.04309563,0.0809601,-0.588026,2.483131,885,-635,495
2457.246,4.207,-12.55041,2.916138,0.2202666,0.4005394,-0.5262406,2.512959,876,-604,505
2457.25,4.210906,-11.96143,2.408567,0.4118027,0.5912218,-0.4111921,2.526807,850,-588,485
2457.254,4.214813,-11.98059,0.6655881,0.7230489,0.8767126,-0.05858954,2.551308,879,-614,465
2457.258,4.218719,-11.98059,0.6655881,0.7230489,0.8767126,-0.05858954,2.551308,879,-614,465
2457.262,4.222625,-12.10508,0.296881,0.7565677,0.9076053,-0.002130529,2.542786,880,-597,504
2457.266,4.226531,-12.27747,-0.3064578,0.6991069,0.90654,0.07243798,2.528938,853,-636,477
2457.27,4.230438,-12.41633,-0.9816227,0.6512229,0.8735168,0.0958738,2.506567,841,-625,483
2457.273,4.234344,-12.3445,-1.513135,0.4405331,0.8170578,0.1150486,2.489523,847,-596,516
2457.277,4.23825,-12.02368,-1.896208,0.2873042,0.7190535,0.09906959,2.474609,838,-602,475
2457.281,4.242156,-11.76032,-2.145205,0.2442086,0.6423545,0.1033307,2.474609,845,-636,516
2457.285,4.246063,-11.47301,-2.389413,0.1244985,0.5837649,0.08628642,2.465022,828,-623,488
2457.289,4.249969,-11.03248,-2.576161,0.08140286,0.5219796,0.08948221,2.452239,877,-627,472
2457.293,4.253875,-10.51055,-2.561796,-0.06224924,0.4516721,0.09480853,2.41602,872,-618,474
2457.297,4.257781,-10.11311,-2.48997,-0.03830723,0.3813647,0.128897,2.398976,846,-606,474
2457.301,4.261688,-9.653421,-2.408567,0.01915361,0.314253,0.1331581,2.391519,860,-634,491
2457.305,4.265594,-9.346963,-2.513912,0.009576807,0.2567287,0.1480718,2.374474,848,-605,451
2457.309,4.2695,-9.050082,-2.509123,-0.1675941,0.1960087,0.1683118,2.324407,811,-579,485
2457.312,4.273406,-8.911219,-2.533065,-0.2154781,0.1502023,0.2141182,2.281796,857,-606,515
2457.316,4.277313,-8.705317,-2.566584,-0.248997,0.1150486,0.2503371,2.232794,820,-632,505
2457.32,4.281219,-8.532935,-2.537854,-0.2442086,0.08309063,0.2822951,2.176335,853,-622,487
2457.324,4.285125,-8.355764,-2.451662,-0.2537854,0.04580637,0.3291667,2.102832,810,-620,501
2457.328,4.289031,-8.192958,-2.327164,-0.2202666,0.01917476,0.3526025,2.052765,817,-612,494
2457.332,4.292938,-8.049306,-2.245761,-0.07661445,-0.01065264,0.3856257,2.003762,853,-625,476
2457.336,4.296844,-7.838616,-2.063802,0.09576807,-0.0298274,0.3760383,1.960087,852,-597,474
2457.34,4.30075,-7.469909,-1.723825,0.2154781,-0.05326322,0.3856257,1.915345,859,-592,490
2457.344,4.304656,-7.153875,-1.441309,0.2059013,-0.07882957,0.3856257,1.896171,850,-612,452
2457.348,4.308563,-6.794744,-1.264138,0.2442086,-0.1118528,0.3930826,1.878061,781,-655,519
2457.352,4.312469,-6.545747,-1.101333,0.2059013,-0.1565939,0.4207795,1.856756,824,-638,502
2457.355,4.316375,-6.29675,-0.8331822,0.2298434,-0.2258361,0.46339,1.821602,810,-600,477
2457.359,4.320281,-6.172252,-0.6703765,0.2106897,-0.2886867,0.5028048,1.79071,823,-625,486
2457.363,4.324188,-6.019023,-0.6320692,0.2394202,-0.3600594,0.535828,1.761947,874,-627,484
2457.367,4.328094,-5.975927,-0.6081272,0.3351882,-0.42291,0.5656554,1.729989,832,-608,473
2457.371,4.332,-5.813122,-0.641646,0.1723825,-0.4868258,0.5933523,1.677791,860,-618,492
2457.375,4.335906,-5.808333,-0.7134721,0.05746084,-0.5219796,0.6178534,1.642638,794,-617,489
2457.379,4.339813,-5.741296,-0.8810662,-0.2011129,-0.5336975,0.6338323,1.607484,797,-597,499
2457.383,4.343719,-5.683835,-1.11091,-0.545878,-0.5241101,0.644485,1.5702,838,-599,492
2457.387,4.347625,-5.645528,-1.388637,-0.842759,-0.4857606,0.6785734,1.506284,817,-632,505
2457.391,4.351531,-5.564125,-1.671153,-1.177947,-0.4420847,0.7062703,1.459412,836,-654,498
2457.395,4.355438,-5.525817,-1.891419,-1.359907,-0.3952131,0.7339672,1.40828,832,-622,493
2457.398,4.359344,-5.516241,-2.288857,-1.685518,-0.3472762,0.7627293,1.34969,854,-627,493
2457.402,4.36325,-5.497087,-2.719813,-2.149993,-0.2759035,0.8234494,1.264469,836,-637,494
2457.406,4.367156,-5.516241,-3.08852,-2.379836,-0.2237055,0.8724516,1.198422,871,-624,459
2457.41,4.371063,-5.425261,-3.399766,-2.595315,-0.1789644,0.9353022,1.124919,804,-615,459
2457.414,4.374969,-5.430049,-3.615245,-2.72939,-0.1438107,1.006675,1.04609,805,-636,479
2457.418,4.378875,-5.439626,-3.921702,-2.873042,-0.1161138,1.114267,0.9299759,843,-613,501
2457.422,4.382781,-5.396531,-4.175488,-2.743755,-0.09161274,1.176052,0.8362326,821,-606,502
2457.426,4.386688,-5.449203,-4.501099,-2.671929,-0.06391587,1.229315,0.737163,821,-607,539
2457.43,4.390594,-5.48751,-4.726154,-2.619257,-0.03834952,1.283644,0.6348976,792,-625,471
2457.434,4.3945,-5.497087,-4.932055,-2.576161,-0.006391587,1.342233,0.4900216,814,-639,500
2457.438,4.398406,-5.48751,-5.142745,-2.418144,0.02663161,1.372061,0.3834952,817,-643,477
2457.441,4.402313,-5.482722,-5.27682,-2.269703,0.06924219,1.392301,0.2801645,823,-610,499
2457.445,4.406219,-5.501875,-5.324704,-2.140416,0.1320928,1.414671,0.185356,817,-609,520
2457.449,4.410125,-5.602432,-5.453991,-1.877054,0.2556635,1.425324,0.06711166,834,-615,489
2457.453,4.414031,-5.6982,-5.516241,-1.666364,0.3920173,1.409345,-0.0149137,818,-612,488
2457.457,4.417938,-5.822698,-5.674258,-1.355118,0.5581986,1.39017,-0.09480853,840,-620,482
2457.461,4.421844,-5.904101,-5.722142,-1.039084,0.7446198,1.361408,-0.1842907,790,-589,494
2457.465,4.42575,-6.081272,-5.894524,-0.6129156,1.006675,1.295362,-0.3131877,837,-612,492
2457.469,4.429656,-6.29675,-6.167463,-0.4740519,1.209075,1.242098,-0.4186489,824,-627,478
2457.473,4.433563,-6.497863,-6.325481,-0.3303998,1.386974,1.203749,-0.5475459,804,-630,518
2457.477,4.437469,-6.670246,-6.282385,0.05267244,1.495631,1.181378,-0.7084008,812,-581,502
2457.48,4.441375,-6.971915,-6.205771,0.7996634,1.539307,1.14942,-0.9598033,827,-613,481
2457.484,4.445281,-7.244854,-5.856217,1.580173,1.483913,1.112136,-1.168595,833,-594,491
2457.488,4.449188,-7.374141,-5.358223,2.571373,1.326254,1.047155,-1.389105,831,-627,510
2457.492,4.453094,-7.484274,-4.721366,3.20823,1.047155,0.9512811,-1.611745,857,-640,485
2457.496,4.457,-7.474698,-2.949656,2.82037,0.4548679,0.8788432,-1.887649,834,-636,473
2457.5,4.460906,-7.742848,-0.9385271,3.203442,-0.1097222,0.8916263,-2.082592,859,-573,531
2457.504,4.464813,-8.178593,0.866701,3.964798,-0.7190535,0.9012137,-2.2541,825,-624,512
2457.508,4.468719,-8.781932,2.231396,4.611232,-1.304949,0.8692558,-2.390453,869,-626,489
2457.512,4.472625,-9.548076,2.686294,6.306327,-1.992044,0.7307714,-2.523611,841,-618,482
2457.516,4.476531,-9.385271,2.303222,9.495404,-2.466087,0.4889564,-2.594984,835,-675,513
2457.52,4.480438,-8.959103,1.771709,13.45062,-3.028547,0.01704423,-2.61842,827,-616,524
2457.523,4.484344,-10.817,1.163582,13.64216,-3.795537,-0.551807,-2.609898,812,-616,489
2457.527,4.48825,-16.81687,3.983952,25.05771,-5.189968,-1.328385,-2.801645,850,-649,497
2457.531,4.492156,-19.06263,3.169923,25.86695,-6.56629,-2.617355,-3.159574,840,-590,481
2457.535,4.496063,-16.16565,8.288726,14.52802,-6.963634,-3.581419,-3.333212,849,-641,493
2457.539,4.499969,-12.11466,16.05073,8.489839,-6.18386,-3.774232,-3.078614,826,-602,527
2457.543,4.503875,-6.095637,30.97139,-9.198523,-4.372911,-2.85917,-2.49911,872,-644,508
2457.547,4.507781,-5.48751,42.66946,-29.09434,-2.916694,-0.7478156,-1.735316,881,-630,519
2457.551,4.511688,-6.62715,50.9965,-41.3335,-1.441303,2.185923,-0.6466155,813,-635,522
2457.555,4.515594,-11.45865,54.74582,-37.47883,0.09693906,4.780907,0.793622,835,-647,505
2457.559,4.5195,-18.37789,50.35964,-20.09214,1.956891,5.151619,2.629073,836,-614,470
2457.562,4.523406,-23.88456,39.557,-8.197746,2.862366,4.098072,3.520699,817,-625,521
2457.566,4.527313,-23.71217,27.93554,-1.666364,3.50472,2.71749,3.797668,879,-622,472
2457.57,4.531219,-16.40028,19.02911,1.556231,3.853061,1.59257,3.628291,829,-564,483
2457.574,4.535125,-10.51055,12.34929,1.206678,3.715642,0.7499462,3.24373,791,-608,487
2457.578,4.539031,-6.14831,8.791508,0,3.192598,0.6615292,2.928412,824,-631,515
2457.582,4.542938,-3.739743,5.870582,-1.039084,2.67914,0.8127968,2.536395,858,-629,504
2457.586,4.546844,-2.87783,4.434061,-1.25935,2.266883,1.034372,2.0762,850,-630,511
2457.59,4.55075,-3.280056,4.46758,-0.8571242,1.700162,1.211206,1.416802,840,-611,508
2457.594,4.554656,-3.825934,5.123592,-0.3639187,1.18777,1.195227,0.9683254,853,-590,464
2457.598,4.558563,-4.266467,6.066907,-0.2633622,0.6636597,1.080178,0.6040049,845,-635,516
2457.602,4.562469,-4.932055,6.818686,-0.3782839,0.165116,0.8032094,0.2428803,849,-632,481
2457.605,4.566375,-5.272032,7.388506,-0.4022259,0.05858954,0.5113269,0.08628642,818,-653,507
2457.609,4.570281,-5.109226,7.173028,-0.6368576,0.2130529,0.1203749,0.0181095,790,-628,523
2457.613,4.574188,-4.625598,6.315904,-0.9241618,0.6018744,-0.3749731,0.01917476,821,-592,487
2457.617,4.578094,-4.91769,3.667917,-2.470816,1.345429,-1.00561,0.1012001,783,-618,513
2457.621,4.582,-8.657433,0.5506664,-5.918467,1.95263,-1.12918,0.1480718,837,-646,478
2457.625,4.585906,-16.94137,-3.227384,-10.65899,2.439456,-0.5837649,0.03834952,838,-626,527
2457.629,4.589813,-29.30982,-7.972692,-12.86644,2.702576,0.6764429,-0.3515373,852,-636,512
2457.633,4.593719,-35.64009,-10.90798,-10.37647,2.541721,2.548113,-1.358212,833,-627,510
2457.637,4.597625,-26.47029,-9.045294,-1.795651,1.944108,2.847452,-2.044242,855,-619,516
2457.641,4.601531,-14.95418,-7.5561,12.32535,1.067395,1.841842,-2.120941,805,-651,522
2457.645,4.605438,-9.150639,-7.455544,20.36987,0.1033307,0.1374191,-1.52972,800,-612,508
2457.648,4.609344,-11.50174,-10.40041,14.19283,-0.8372978,-1.100418,-0.7925567,798,-606,481
2457.652,4.61325,-14.26465,-9.275137,8.269573,-0.6263755,-0.7510114,-0.9374327,863,-614,518
2457.656,4.617156,-15.05474,-1.154005,5.439626,0.314253,-0.2908172,-1.412541,823,-622,494
2457.66,4.621063,-15.73469,9.423578,6.224924,1.030111,-0.1533981,-1.631985,828,-603,487
2457.664,4.624969,-17.2191,16.89828,11.54484,0.3398194,-0.6519418,-1.602158,802,-629,474
2457.668,4.628875,-16.48168,20.33635,7.201759,-1.500958,-1.383779,-1.741707,832,-612,490
2457.672,4.632781,-12.1386,27.5429,-8.729259,-4.125769,-1.554221,-1.89191,865,-592,494
2457.676,4.636688,-4.860229,39.49475,-20.84392,-7.31091,-0.5944176,-1.797101,832,-633,535
2457.68,4.640594,1.192312,47.38125,-31.95302,-10.09338,1.38804,-0.9278453,845,-602,510
2457.684,4.6445,-6.588843,41.50588,-27.85893,-8.808672,2.253034,0.6359629,848,-642,510
2457.688,4.648406,-18.89504,26.64746,0.890643,-5.192099,1.985653,2.445847,849,-637,511
2457.691,4.652313,-25.37854,11.74595,30.19567,-1.513741,0.5976133,3.271427,861,-657,498
2457.695,4.656219,-19.45049,-2.197877,23.7409,0.2524677,-1.656486,2.997654,838,-592,507
2457.699,4.660125,-12.02847,-15.66766,8.350975,0.3398194,-2.269013,3.06157,879,-639,499
2457.703,4.664031,-10.70687,-28.73521,-3.203442,0.8255799,-1.773665,3.246926,818,-653,472
2457.707,4.667938,-12.91432,-38.41736,-16.96531,0.5283712,0.01278317,2.871953,878,-623,485
2457.711,4.671844,-13.73314,-47.07,-18.46408,-0.8639295,0.5613944,1.216532,843,-666,505
2457.715,4.67575,-7.953538,-49.90953,-10.36689,-1.997371,-0.0958738,-0.06817692,802,-627,502
2457.719,4.679656,-1.493982,-44.88649,-2.944868,-2.03359,-1.475391,-1.081243,849,-627,526
2457.723,4.683563,3.035848,-33.22194,-5.81791,-1.099353,-2.011219,-1.861017,822,-615,507
2457.727,4.687469,4.572925,-17.31008,-15.04037,0.644485,-0.2173139,-2.684466,838,-659,494
2457.73,4.691375,-0.6607997,-10.3621,-15.14093,1.805623,1.657551,-3.147856,842,-618,474
2457.734,4.695281,-11.04206,-8.111555,-10.34774,2.493784,2.47674,-3.467436,853,-662,490
2457.738,4.699188,-20.54704,-7.07726,-8.154651,2.479936,2.106028,-3.706055,815,-645,516
2457.742,4.703094,-22.85984,-3.361459,-1.49877,1.341168,1.080178,-3.961718,865,-624,493
2457.746,4.707,-18.64604,0.1580173,4.673482,0.3004046,0.4665858,-3.918043,824,-620,514
2457.75,4.710906,-15.80173,3.816357,4.094085,-0.1906823,0.2269013,-3.46637,848,-651,506
2457.754,4.714813,-15.99327,7.431602,0.2202666,-0.02343582,0.4122573,-2.690858,820,-653,500
2457.758,4.718719,-17.33402,10.69729,0.3591302,0.6327671,0.479369,-1.674596,851,-611,514
2457.762,4.722625,-16.70195,10.38605,0.9050082,1.143029,0.0149137,-1.234641,805,-632,545
2457.766,4.726531,-13.31176,8.647856,-1.733402,1.360343,-0.427171,-1.114267,812,-637,493
2457.77,4.730438,-9.351752,7.264008,-2.949656,1.265534,-0.4857606,-1.12705,830,-627,505
2457.773,4.734344,-7.268796,6.229713,-2.293645,0.7893609,-0.06711166,-1.113201,853,-623,507
2457.777,4.73825,-8.939949,4.462792,-0.641646,0.2450108,0.1576591,-1.0887,858,-629,497
2457.781,4.742156,-11.31021,2.264915,-0.2202666,-0.2279666,0.04154531,-1.111071,853,-614,490
2457.785,4.746063,-11.90876,0.6560113,-0.7086837,-0.5102617,-0.1896171,-1.198422,838,-649,507
2457.789,4.749969,-10.01734,-0.4501099,-0.8858546,-0.6103965,-0.3579289,-1.339037,831,-647,505
2457.793,4.753875,-8.825027,-0.914585,-1.484405,-0.5667207,-0.3408846,-1.389105,841,-598,489
2457.797,4.757781,-8.686164,-2.015918,-2.202666,-0.4783037,-0.2290319,-1.393366,868,-642,498
2457.801,4.761688,-9.141062,-3.591302,-2.317587,-0.3174488,-0.1352886,-1.398692,838,-666,502
2457.805,4.765594,-9.787496,-5.353435,-2.03986,-0.02024002,-0.1459412,-1.44876,851,-608,471
2457.809,4.7695,-9.768343,-6.042965,-1.848324,0.1960087,-0.2162487,-1.486044,841,-646,507
2457.812,4.773406,-9.504981,-6.315904,-1.824382,0.3515373,-0.2620551,-1.500958,863,-615,478
2457.816,4.777313,-9.284714,-6.229713,-1.838747,0.4410195,-0.2609898,-1.51161,865,-615,477
2457.82,4.781219,-9.514557,-5.449203,-2.001553,0.5422196,-0.2247708,-1.52972,888,-590,513
2457.824,4.785125,-9.71567,-4.539406,-1.991976,0.6657903,-0.1970739,-1.553156,865,-646,498
2457.828,4.789031,-9.873688,-3.514688,-1.924938,0.8362326,-0.1928129,-1.579787,866,-652,482
2457.832,4.792938,-10.02692,-2.418144,-1.915361,1.008805,-0.2258361,-1.604288,870,-659,486
2457.836,4.796844,-9.931148,-0.7709329,-2.020706,1.198422,-0.2876214,-1.608549,858,-628,529
2457.84,4.80075,-9.854534,0.4405331,-2.020706,1.279383,-0.3281014,-1.577657,884,-618,502
2457.844,4.804656,-9.605537,1.426944,-1.810016,1.297492,-0.3696468,-1.532916,842,-597,513
2457.848,4.808563,-9.284714,2.327164,-1.508347,1.263404,-0.4058658,-1.486044,872,-598,504
2457.852,4.812469,-8.66701,3.189077,-1.37906,1.155812,-0.4356932,-1.443433,859,-622,514
2457.855,4.816375,-8.092402,3.466804,-1.383849,1.053547,-0.4442153,-1.42852,877,-611,473
2457.859,4.820281,-7.52737,3.667917,-1.412579,0.9395632,-0.4250405,-1.437042,883,-629,466
2457.863,4.824188,-7.062895,3.605668,-1.594538,0.8191884,-0.3845605,-1.454086,847,-630,512
2457.867,4.828094,-6.722918,3.256114,-1.924938,0.6530071,-0.3036004,-1.476457,846,-619,483
2457.871,4.832,-6.789956,2.676717,-2.011129,0.5283712,-0.2354234,-1.48924,904,-664,506
2457.875,4.835906,-7.062895,1.968034,-2.025495,0.4079963,-0.1661813,-1.497762,869,-640,471
2457.879,4.839813,-7.345411,1.374272,-1.939303,0.3025351,-0.1107875,-1.499892,864,-592,500
2457.883,4.843719,-7.94875,0.5650316,-1.762132,0.1757686,-0.05326322,-1.502023,844,-666,486
2457.887,4.847625,-8.374917,0.03351882,-1.489193,0.1097222,-0.02769688,-1.497762,874,-667,482
2457.891,4.851531,-8.614338,-0.4118027,-1.302446,0.0628506,-0.01597897,-1.503088,814,-616,515
2457.895,4.855438,-8.844181,-0.521936,-1.16837,0.01704423,-0.002130529,-1.508414,929,-614,474
2457.898,4.859344,-8.930372,-0.9002198,-0.8044518,-0.05432849,0.0181095,-1.503088,867,-615,502
2457.902,4.86325,-9.126697,-0.8619126,-0.545878,-0.09906959,0.02556635,-1.504153,868,-623,523
2457.906,4.867156,-9.332598,-0.7565677,-0.3016694,-0.1512675,0.02556635,-1.502023,873,-617,478
2457.91,4.871063,-9.490615,-0.6799533,0.01915361,-0.1992044,0.01065264,-1.506284,881,-624,512
2457.914,4.874969,-9.548076,-0.2920926,0.2442086,-0.2535329,-0.02130529,-1.524393,888,-634,463
2457.918,4.878875,-9.418789,-0.03830723,0.1963245,-0.2876214,-0.02769688,-1.530785,846,-604,518
2457.922,4.882781,-9.299079,0.2585738,0.1771709,-0.3004046,-0.01597897,-1.544633,870,-596,513
2457.926,4.886688,-9.083601,0.7326257,0.08619126,-0.3014698,0.01597897,-1.55209,882,-616,524
2457.93,4.890594,-8.920795,1.029507,-0.1149217,-0.2716424,0.06178534,-1.553156,856,-615,522
2457.934,4.8945,-8.690952,1.49877,-0.3495534,-0.2311624,0.09054748,-1.556351,860,-667,497
2457.938,4.898406,-8.418013,1.714248,-0.6751649,-0.1789644,0.1139833,-1.564873,863,-606,517
2457.941,4.902313,-8.106767,2.011129,-1.312023,-0.1171791,0.1352886,-1.579787,858,-644,488
2457.945,4.906219,-7.805097,2.365471,-2.312799,-0.05219796,0.1981392,-1.602158,883,-625,492
2457.949,4.910125,-7.651869,2.509123,-2.619257,0.001065264,0.2492719,-1.623463,861,-658,548
2457.953,4.914031,-7.532158,2.671929,-2.925714,0.05219796,0.2897519,-1.644768,886,-628,502
2457.957,4.917938,-7.517793,2.700659,-3.122039,0.1107875,0.3291667,-1.659682,871,-628,520
2457.961,4.921844,-7.575254,2.561796,-2.959233,0.2045308,0.3898868,-1.676726,890,-645,495
2457.965,4.92575,-7.747637,2.513912,-2.480393,0.2865561,0.4239752,-1.686314,888,-635,485
2457.969,4.929656,-8.010999,2.413355,-1.972822,0.3802994,0.4314321,-1.682053,881,-650,501
2457.973,4.933563,-8.451532,2.418144,-1.345541,0.5294364,0.3845605,-1.658617,907,-628,494
2457.977,4.937469,-8.623914,2.389413,-1.04866,0.6540724,0.3217099,-1.625594,898,-624,504
2457.98,4.941375,-8.69574,2.408567,-1.11091,0.7787083,0.2428803,-1.587244,917,-591,540
2457.984,4.945281,-8.66701,2.379836,-1.297657,0.9012137,0.169377,-1.541438,887,-620,512
2457.988,4.949188,-8.657433,2.336741,-1.833958,1.045024,0.0958738,-1.476457,937,-630,506
2457.992,4.953094,-8.743624,2.221819,-2.336741,1.123854,0.04687164,-1.432781,920,-641,514
2457.996,4.957,-8.853758,2.217031,-2.753332,1.166465,-0.001065264,-1.392301,887,-623,509
2458,4.960906,-9.02614,2.149993,-3.32794,1.156877,-0.05752428,-1.362473,911,-606,497
2458.004,4.964813,-9.23683,2.145205,-3.801992,1.071656,-0.1342233,-1.342233,900,-594,508
2458.008,4.968719,-9.260772,2.221819,-4.10845,0.9544769,-0.1757686,-1.345429,891,-650,478
2458.012,4.972625,-9.179369,2.375048,-4.185065,0.8234494,-0.2034655,-1.364604,891,-627,492
2458.016,4.976531,-9.093178,2.671929,-4.094085,0.6977482,-0.201335,-1.39017,885,-623,484
2458.02,4.980438,-8.901642,3.189077,-3.682282,0.5528722,-0.1629855,-1.43065,887,-603,505
2458.023,4.984344,-8.839393,3.476381,-3.294421,0.4708469,-0.1235707,-1.455151,916,-662,457
2458.027,4.98825,-8.772355,3.816357,-2.753332,0.4143879,-0.08522115,-1.466869,939,-596,515
2458.031,4.992156,-8.820239,3.912126,-2.293645,0.3856257,-0.05858954,-1.466869,888,-610,479
2458.035,4.996063,-8.992621,3.921702,-1.584961,0.4037352,-0.03941478,-1.44876,888,-608,505
2458.039,4.999969,-9.121908,3.653552,-1.149217,0.4399542,-0.03408846,-1.416802,897,-650,509
2458.043,5.003875,-9.323021,3.308787,-0.7565677,0.5028048,-0.03195793,-1.378452,918,-639,436
2458.047,5.007781,-9.643844,2.882619,-0.4692635,0.5848302,-0.03834952,-1.333711,887,-623,510
2458.051,5.011688,-10.14184,2.346318,-0.2202666,0.7137272,-0.06391587,-1.271926,878,-626,498
2458.055,5.015594,-10.49618,2.025495,-0.1723825,0.8127968,-0.09374327,-1.226119,864,-605,490
2458.059,5.0195,-10.7787,1.934515,-0.3160346,0.8969527,-0.1342233,-1.186705,866,-614,484
2458.062,5.023406,-10.80264,1.833958,-0.7134721,0.9608685,-0.1768339,-1.14942,889,-618,471
2458.066,5.027313,-10.86968,1.862689,-1.201889,1.022654,-0.2503371,-1.101483,929,-626,508
2458.07,5.031219,-10.88404,1.924938,-1.723825,1.049285,-0.2961435,-1.067395,917,-582,517
2458.074,5.035125,-10.74518,2.135628,-2.207454,1.065264,-0.3334278,-1.026915,937,-625,487
2458.078,5.039031,-10.62547,2.217031,-2.710236,1.072721,-0.370712,-0.9853696,910,-605,502
2458.082,5.042938,-10.53449,2.413355,-3.399766,1.103614,-0.3920173,-0.9331716,879,-616,507
2458.086,5.046844,-10.44351,2.437297,-3.921702,1.139833,-0.40267,-0.8948221,904,-627,492
2458.09,5.05075,-10.40041,2.413355,-4.19943,1.180313,-0.4079963,-0.8628642,902,-589,487
2458.094,5.054656,-10.38605,2.499547,-4.242525,1.212271,-0.4261058,-0.8287757,929,-633,496
2458.098,5.058563,-10.29507,2.499547,-4.027047,1.238903,-0.4836301,-0.7765778,932,-614,505
2458.102,5.062469,-10.14184,2.604891,-3.821146,1.239968,-0.5347627,-0.7339672,904,-582,487
2458.105,5.066375,-9.849746,2.801216,-3.572149,1.211206,-0.5677859,-0.6966829,881,-662,508
2458.109,5.070281,-9.572018,2.987964,-3.270479,1.144094,-0.5731123,-0.660464,842,-579,500
2458.113,5.074188,-9.308656,3.667917,-2.705448,1.012001,-0.5571333,-0.6199839,911,-634,506
2458.117,5.078094,-9.212888,4.132392,-2.260126,0.8990832,-0.5368933,-0.5901565,901,-581,468
2458.121,5.082,-9.064447,4.510676,-1.896208,0.7829694,-0.5091964,-0.5571333,917,-613,495
2458.125,5.085906,-8.973468,4.817134,-1.608904,0.6721819,-0.4751079,-0.5305017,924,-617,489
2458.129,5.089813,-8.90643,4.845864,-1.364695,0.5550028,-0.4282363,-0.4889564,942,-609,484
2458.133,5.093719,-8.887277,4.668693,-1.383849,0.4889564,-0.3877563,-0.4538026,922,-629,489
2458.137,5.097625,-8.968679,4.290409,-1.47004,0.4388889,-0.3462109,-0.4175837,905,-609,482
2458.141,5.101531,-9.141062,3.835511,-1.608904,0.406931,-0.3153183,-0.3824299,924,-596,506
2458.145,5.105438,-9.543288,3.222595,-1.905785,0.3856257,-0.2844256,-0.3312972,922,-632,471
2458.148,5.109344,-9.89763,2.743755,-2.149993,0.3781689,-0.2759035,-0.2886867,952,-598,499
2458.152,5.11325,-10.16099,2.494758,-2.408567,0.386691,-0.2833603,-0.2439456,882,-620,484
2458.156,5.117156,-10.26634,2.25055,-2.576161,0.40267,-0.3004046,-0.1992044,919,-642,472
2458.16,5.121063,-10.2807,2.154781,-2.82037,0.42291,-0.3323625,-0.1384844,910,-580,512
2458.164,5.124969,-10.29507,2.48997,-3.122039,0.4569984,-0.3526025,-0.0958738,904,-649,518
2458.168,5.128875,-10.34295,3.193865,-3.39019,0.4974785,-0.3675162,-0.04900216,906,-617,483
2458.172,5.132781,-10.44351,3.921702,-3.620033,0.5454154,-0.3824299,0.003195793,909,-594,516
2458.176,5.136688,-10.82658,5.406107,-3.428497,0.624245,-0.3952131,0.0809601,918,-607,469
2458.18,5.140594,-11.38203,6.646304,-3.32794,0.6956177,-0.386691,0.1597897,848,-615,457
