t_native_s,t_opt_s,ax,ay,az,gx,gy,gz,mx,my,mz
2455.254,0.0014375,-9.830592,0.05746084,2.264915,0.1587244,0.01278317,-0.04900216,309,-1038,90
2455.258,0.00534375,-9.768343,0.004788403,2.25055,0.1502023,0.008522115,-0.0479369,227,-1043,56
2455.262,0.00925,-9.797073,0.05267244,2.327164,0.1480718,0.01384844,-0.04367584,270,-1023,47
2455.266,0.01315625,-9.811438,0.03351882,2.284068,0.144876,0.005326322,-0.04154531,341,-1009,33
2455.27,0.0170625,-9.768343,0.004788403,2.274492,0.1374191,-0.001065264,-0.04048005,295,-1097,80
2455.273,0.02096875,-9.71567,-0.02873042,2.288857,0.1310275,0.006391587,-0.03621899,312,-1050,48
2455.277,0.024875,-9.730036,-0.03351882,2.346318,0.1310275,0.01171791,-0.03195793,260,-990,75
2455.281,0.02878125,-9.77792,-0.04788403,2.317587,0.1246359,-0.001065264,-0.0298274,268,-1019,23
2455.285,0.0326875,-9.787496,-0.04788403,2.269703,0.1161138,0.001065264,-0.02663161,334,-987,26
2455.289,0.03659375,-9.749189,-0.06224924,2.284068,0.1193096,0.01065264,-0.02237055,296,-1080,27
2455.293,0.0405,-9.734824,-0.09097966,2.27928,0.1161138,0.004261058,-0.02237055,282,-1056,92
2455.297,0.04440625,-9.720459,-0.1005565,2.25055,0.108657,-0.002130529,-0.01917476,264,-1061,74
2455.301,0.0483125,-9.734824,-0.1244985,2.327164,0.108657,0.002130529,-0.01704423,281,-1010,23
2455.305,0.05221875,-9.706094,-0.1244985,2.255338,0.1097222,0.001065264,-0.0149137,306,-1045,40
2455.309,0.056125,-9.768343,-0.1244985,2.293645,0.1075917,-0.007456851,-0.0181095,316,-1049,54
2455.312,0.06003125,-9.71567,-0.1484405,2.25055,0.1054612,-0.007456851,-0.0149137,265,-1020,72
2455.316,0.0639375,-9.667786,-0.2011129,2.226608,0.1054612,-0.003195793,-0.01278317,259,-997,43
2455.32,0.06784375,-9.734824,-0.2298434,2.193089,0.1054612,-0.01278317,-0.01384844,316,-1004,5
2455.324,0.07175,-9.734824,-0.2394202,2.255338,0.1012001,-0.01917476,-0.01384844,334,-1028,75
2455.328,0.07565625,-9.691728,-0.2633622,2.217031,0.1012001,-0.01384844,-0.01171791,274,-1063,51
2455.332,0.0795625,-9.720459,-0.2298434,2.231396,0.1012001,-0.0149137,-0.01171791,269,-1054,43
2455.336,0.08346875,-9.691728,-0.2394202,2.245761,0.09800433,-0.02130529,-0.01384844,278,-1028,64
2455.34,0.087375,-9.672575,-0.272939,2.207454,0.0958738,-0.01597897,-0.01171791,297,-1066,-15
2455.344,0.09128125,-9.696517,-0.2442086,2.255338,0.09693906,-0.01384844,-0.01171791,329,-1065,69
2455.348,0.0951875,-9.648633,-0.3016694,2.293645,0.09480853,-0.01917476,-0.00958738,250,-1077,29
2455.352,0.09909375,-9.634267,-0.2633622,2.322376,0.09267801,-0.02130529,-0.00958738,241,-999,8
2455.355,0.103,-9.634267,-0.3016694,2.317587,0.09161274,-0.0149137,-0.008522115,300,-1070,40
2455.359,0.1069063,-9.648633,-0.2633622,2.322376,0.09054748,-0.01704423,-0.01171791,316,-1034,37
2455.363,0.1108125,-9.677363,-0.2537854,2.298434,0.08522115,-0.02024002,-0.01278317,291,-1063,51
2455.367,0.1147188,-9.624691,-0.2777274,2.322376,0.08415589,-0.0149137,-0.0149137,237,-984,72
2455.371,0.118625,-9.672575,-0.2633622,2.303222,0.08522115,-0.00958738,-0.0149137,246,-1026,11
2455.375,0.1225313,-9.619902,-0.2873042,2.336741,0.08309063,-0.01597897,-0.0149137,273,-1050,4
2455.379,0.1264375,-9.576807,-0.225055,2.341529,0.07882957,-0.0149137,-0.02024002,321,-1069,76
2455.383,0.1303438,-9.615114,-0.2202666,2.30801,0.07563377,-0.00958738,-0.01917476,273,-1051,73
2455.387,0.13425,-9.634267,-0.2633622,2.341529,0.07882957,-0.01384844,-0.02343582,259,-985,31
2455.391,0.1381563,-9.591172,-0.272939,2.346318,0.07669904,-0.01704423,-0.02450108,337,-1008,20
2455.395,0.1420625,-9.605537,-0.3256114,2.336741,0.07563377,-0.01171791,-0.02663161,291,-1044,38
2455.398,0.1459688,-9.677363,-0.225055,2.336741,0.07350325,-0.01171791,-0.02876214,284,-1069,68
2455.402,0.149875,-9.658209,-0.2298434,2.322376,0.07456851,-0.02024002,-0.0298274,289,-982,62
2455.406,0.1537813,-9.682152,-0.248997,2.351106,0.07137272,-0.02237055,-0.03408846,242,-1017,30
2455.41,0.1576875,-9.581595,-0.3016694,2.341529,0.06711166,-0.01597897,-0.03089267,313,-1043,21
2455.414,0.1615938,-9.662998,-0.225055,2.365471,0.0660464,-0.01917476,-0.0330232,288,-1069,63
2455.418,0.1655,-9.624691,-0.2346318,2.327164,0.06391587,-0.02663161,-0.0330232,295,-1050,77
2455.422,0.1694063,-9.643844,-0.225055,2.327164,0.05645902,-0.03728426,-0.03195793,275,-999,16
2455.426,0.1733125,-9.672575,-0.3016694,2.30801,0.05326322,-0.02663161,-0.0298274,313,-1028,39
2455.43,0.1772188,-9.672575,-0.2537854,2.260126,0.05326322,-0.03515373,-0.02876214,320,-1067,-13
2455.434,0.181125,-9.706094,-0.2537854,2.212242,0.0479369,-0.03621899,-0.02769688,309,-1074,50
2455.438,0.1850313,-9.758766,-0.296881,2.260126,0.04474111,-0.0330232,-0.02450108,294,-1005,52
2455.441,0.1889375,-9.749189,-0.296881,2.202666,0.04367584,-0.04367584,-0.02343582,275,-1004,6
2455.445,0.1928438,-9.720459,-0.3303998,2.202666,0.04048005,-0.05006743,-0.02237055,335,-983,-17
2455.449,0.19675,-9.782708,-0.3351882,2.197877,0.03728426,-0.04474111,-0.01704423,315,-1048,44
2455.453,0.2006563,-9.782708,-0.3639187,2.236184,0.03621899,-0.0479369,-0.01597897,307,-1039,55
2455.457,0.2045625,-9.811438,-0.3256114,2.1883,0.03408846,-0.05965481,-0.01597897,272,-1011,44
2455.461,0.2084688,-9.80665,-0.3926491,2.183512,0.02876214,-0.05858954,-0.01384844,241,-1036,11
2455.465,0.212375,-9.753978,-0.3782839,2.135628,0.02876214,-0.05645902,-0.01171791,334,-1047,59
2455.469,0.2162813,-9.758766,-0.4309563,2.164358,0.03089267,-0.0628506,-0.01278317,335,-1065,37
2455.473,0.2201875,-9.753978,-0.3830723,2.121263,0.02876214,-0.06711166,-0.00958738,255,-987,101
2455.477,0.2240938,-9.749189,-0.4261679,2.102109,0.02876214,-0.05965481,-0.00958738,252,-1024,-5
2455.48,0.228,-9.701305,-0.4596867,2.035071,0.03089267,-0.0628506,-0.01065264,287,-1053,44
2455.484,0.2319063,-9.629479,-0.4979939,2.015918,0.02769688,-0.06711166,-0.01065264,284,-1074,34
2455.488,0.2358125,-9.648633,-0.4932055,2.06859,0.0298274,-0.05858954,-0.008522115,275,-1043,85
2455.492,0.2397188,-9.56723,-0.5506664,2.044648,0.0330232,-0.05539375,-0.008522115,286,-1022,54
2455.496,0.243625,-9.610325,-0.56982,2.020706,0.0330232,-0.06178534,-0.008522115,254,-1025,41
2455.5,0.2475313,-9.591172,-0.56982,2.073379,0.03408846,-0.05752428,-0.01065264,265,-1041,50
2455.504,0.2514375,-9.557653,-0.5985504,2.054225,0.03089267,-0.0479369,-0.01065264,293,-1042,57
2455.508,0.2553438,-9.533711,-0.6464344,2.030283,0.03515373,-0.05113269,-0.01384844,239,-1062,88
2455.512,0.25925,-9.643844,-0.6607997,1.972822,0.03728426,-0.05752428,-0.01597897,261,-1042,9
2455.516,0.2631563,-9.610325,-0.7038953,1.996764,0.03621899,-0.05326322,-0.01597897,249,-999,14
2455.52,0.2670625,-9.672575,-0.7038953,2.020706,0.03941478,-0.05113269,-0.01384844,334,-1065,21
2455.523,0.2709688,-9.71567,-0.7565677,2.030283,0.04261058,-0.0628506,-0.02237055,298,-1070,80
2455.527,0.274875,-9.782708,-0.7852981,2.116474,0.04154531,-0.0660464,-0.02237055,260,-1008,56
2455.531,0.2787813,-9.80665,-0.7757213,2.087744,0.04474111,-0.06498113,-0.02237055,255,-1015,9
2455.535,0.2826875,-9.888053,-0.8092402,2.145205,0.04367584,-0.07669904,-0.02876214,300,-1091,9
2455.539,0.2865938,-10.04607,-0.818817,2.217031,0.04687164,-0.08735168,-0.03621899,336,-1067,23
2455.543,0.2905,-10.13705,-0.842759,2.269703,0.04154531,-0.09267801,-0.03834952,272,-1070,45
2455.547,0.2944063,-10.23282,-0.7900865,2.331952,0.04048005,-0.1065264,-0.04474111,263,-986,36
2455.551,0.2983125,-10.32859,-0.7709329,2.39899,0.04048005,-0.1267665,-0.05432849,302,-1026,20
2455.555,0.3022188,-10.47703,-0.7134721,2.5187,0.0330232,-0.144876,-0.06391587,324,-1015,19
2455.559,0.306125,-10.47703,-0.6943185,2.504335,0.02663161,-0.1619202,-0.07030745,294,-1050,64
2455.562,0.3100313,-10.64462,-0.6847417,2.604891,0.02130529,-0.1917476,-0.08309063,271,-1009,50
2455.566,0.3139375,-10.70208,-0.5985504,2.628833,0.00958738,-0.2130529,-0.09267801,223,-1021,20
2455.57,0.3178438,-10.71645,-0.6033388,2.652775,-0.003195793,-0.2290319,-0.1001349,297,-968,-6
2455.574,0.32175,-10.83616,-0.5554548,2.724601,-0.02130529,-0.2631203,-0.1139833,304,-1073,59
2455.578,0.3256563,-10.85052,-0.545878,2.734178,-0.04048005,-0.2918825,-0.1235707,257,-1080,88
2455.582,0.3295625,-10.91277,-0.521936,2.786851,-0.05858954,-0.3025351,-0.1310275,253,-998,22
2455.586,0.3334688,-10.87925,-0.4453215,2.796428,-0.07989483,-0.3206446,-0.1342233,310,-1028,14
2455.59,0.337375,-10.82179,-0.3782839,2.791639,-0.1033307,-0.3462109,-0.144876,315,-1065,42
2455.594,0.3412813,-10.73081,-0.3351882,2.63841,-0.1225054,-0.3526025,-0.1480718,304,-1062,69
2455.598,0.3451875,-10.6111,-0.3016694,2.676717,-0.1395496,-0.3547331,-0.1480718,256,-1026,71
2455.602,0.3490938,-10.50576,-0.2202666,2.542642,-0.1502023,-0.3653857,-0.149137,280,-1045,19
2455.605,0.353,-10.25197,-0.2106897,2.355894,-0.1629855,-0.3685815,-0.1470065,313,-992,47
2455.609,0.3569063,-10.06522,-0.1340753,2.231396,-0.169377,-0.3611246,-0.1395496,324,-1055,88
2455.613,0.3608125,-9.763554,-0.09576807,2.173935,-0.1704423,-0.3653857,-0.128897,259,-1061,60
2455.617,0.3647188,-9.605537,-0.1101333,2.145205,-0.1736381,-0.370712,-0.1182444,250,-1006,66
2455.621,0.368625,-9.217676,-0.1628057,2.178724,-0.1789644,-0.3600594,-0.09480853,245,-1008,23
2455.625,0.3725313,-8.983045,-0.2394202,2.178724,-0.1821602,-0.3632552,-0.07989483,304,-1063,13
2455.629,0.3764375,-8.734048,-0.3926491,2.130839,-0.1885518,-0.3653857,-0.06498113,313,-1067,52
2455.633,0.3803438,-8.571242,-0.5746084,2.06859,-0.1938781,-0.3526025,-0.04580637,283,-1013,105
2455.637,0.38425,-8.370129,-0.7230489,1.963245,-0.1992044,-0.3387541,-0.02450108,265,-1025,21
2455.641,0.3881563,-8.331822,-0.8714894,1.896208,-0.2002697,-0.3334278,-0.01278317,316,-1002,44
2455.645,0.3920625,-8.283938,-0.9864111,1.872266,-0.201335,-0.3185141,0.003195793,308,-1069,71
2455.648,0.3959688,-8.259996,-1.063026,1.742979,-0.2045308,-0.298274,0.0181095,273,-1052,60
2455.652,0.399875,-8.288726,-1.249773,1.594538,-0.2066613,-0.2876214,0.03408846,218,-1033,50
2455.656,0.4037813,-8.312668,-1.321599,1.479617,-0.1992044,-0.2716424,0.04580637,250,-1030,23
2455.66,0.4076875,-8.331822,-1.436521,1.412579,-0.1981392,-0.2439456,0.06072007,329,-1037,26
2455.664,0.4115938,-8.365341,-1.527501,1.374272,-0.1885518,-0.2237055,0.07137272,321,-1057,75
2455.668,0.4155,-8.432378,-1.647211,1.28808,-0.1757686,-0.2045308,0.07882957,292,-1056,86
2455.672,0.4194063,-8.542512,-1.766921,1.297657,-0.1619202,-0.165116,0.09054748,259,-1030,20
2455.676,0.4233125,-8.623914,-1.862689,1.331176,-0.1533981,-0.144876,0.09906959,300,-990,0
2455.68,0.4272188,-8.705317,-1.972822,1.393425,-0.1427454,-0.1363538,0.09693906,346,-1027,29
2455.684,0.431125,-8.853758,-1.996764,1.388637,-0.1384844,-0.1235707,0.09693906,272,-1056,68
2455.688,0.4350313,-8.973468,-2.030283,1.450886,-0.1320928,-0.1012001,0.09800433,280,-1027,38
2455.691,0.4389375,-9.093178,-1.934515,1.422156,-0.1257012,-0.1012001,0.09161274,262,-990,58
2455.695,0.4428438,-9.222465,-1.862689,1.431733,-0.1214401,-0.1001349,0.08628642,322,-1076,23
2455.699,0.44675,-9.299079,-1.82917,1.455675,-0.1225054,-0.09054748,0.0777643,288,-1042,63
2455.703,0.4506563,-9.399636,-1.637634,1.47004,-0.1203749,-0.07989483,0.06924219,282,-1037,79
2455.707,0.4545625,-9.514557,-1.527501,1.58975,-0.1171791,-0.08309063,0.05858954,254,-1021,-22
2455.711,0.4584688,-9.543288,-1.37906,1.61848,-0.1203749,-0.07350325,0.05113269,305,-1024,28
2455.715,0.462375,-9.634267,-1.244985,1.565808,-0.1225054,-0.05645902,0.04367584,307,-1054,19
2455.719,0.4662813,-9.749189,-1.058237,1.685518,-0.1225054,-0.05539375,0.0330232,317,-1026,61
2455.723,0.4701875,-9.83538,-0.8762778,1.666364,-0.128897,-0.04900216,0.02450108,266,-993,58
2455.727,0.4740938,-9.864111,-0.7038953,1.728614,-0.1384844,-0.03621899,0.02024002,245,-995,9
2455.73,0.478,-9.969456,-0.5841852,1.819593,-0.1438107,-0.02769688,0.0149137,288,-995,38
2455.734,0.4819063,-9.998186,-0.4070143,1.824382,-0.1555286,-0.03089267,0.006391587,316,-1082,100
2455.738,0.4858125,-10.06044,-0.3495534,1.757344,-0.1683118,-0.01917476,0.001065264,257,-1078,53
2455.742,0.4897188,-10.1179,-0.2298434,1.8579,-0.1747034,-0.006391587,-0.002130529,287,-1015,25
2455.746,0.493625,-10.16578,-0.2154781,1.891419,-0.1789644,-0.007456851,-0.008522115,324,-1014,17
2455.75,0.4975313,-10.10832,-0.1101333,1.934515,-0.1949434,0.003195793,-0.01171791,295,-1061,1
2455.754,0.5014375,-10.13705,-0.05746084,1.963245,-0.2024002,0.0181095,-0.01384844,316,-1116,35
2455.758,0.5053438,-10.06522,-0.06224924,2.001553,-0.205596,0.0181095,-0.01597897,281,-1035,35
2455.762,0.50925,-10.06044,-0.07661445,2.106897,-0.2194445,0.01597897,-0.0181095,281,-1002,17
2455.766,0.5131563,-9.998186,-0.02873042,2.111686,-0.2354234,0.02130529,-0.02237055,308,-1021,20
2455.77,0.5170625,-9.921572,-0.05267244,2.183512,-0.2439456,0.02450108,-0.02237055,304,-1068,66
2455.773,0.5209688,-9.854534,-0.1292869,2.193089,-0.2503371,0.00958738,-0.02450108,253,-1022,40
2455.777,0.524875,-9.797073,-0.1867477,2.245761,-0.2652508,0.008522115,-0.01917476,257,-1010,57
2455.781,0.5287813,-9.730036,-0.1819593,2.269703,-0.2748382,0.01597897,-0.01171791,293,-1000,-10
2455.785,0.5326875,-9.653421,-0.272939,2.355894,-0.2759035,0.00958738,-0.003195793,312,-1068,10
2455.789,0.5365938,-9.572018,-0.4070143,2.432509,-0.2876214,0.007456851,0.006391587,325,-1089,70
2455.793,0.5405,-9.56723,-0.4596867,2.394202,-0.2918825,0.007456851,0.01597897,284,-983,78
2455.797,0.5444063,-9.562441,-0.4979939,2.418144,-0.2844256,0.00958738,0.0298274,275,-1005,-8
2455.801,0.5483125,-9.418789,-0.5363012,2.389413,-0.2833603,0.002130529,0.04261058,322,-994,27
2455.805,0.5522188,-9.414001,-0.5171476,2.413355,-0.2854909,0,0.05965481,310,-1082,46
2455.809,0.556125,-9.418789,-0.5410896,2.437297,-0.2748382,0.006391587,0.07456851,312,-1066,88
2455.812,0.5600313,-9.414001,-0.5506664,2.42772,-0.2599245,0.006391587,0.08948221,240,-1020,66
2455.816,0.5639375,-9.342175,-0.56982,2.485181,-0.2482066,0.004261058,0.1107875,289,-960,19
2455.82,0.5678438,-9.279926,-0.6081272,2.523489,-0.2290319,0.0149137,0.1246359,315,-1085,11
2455.824,0.57175,-9.308656,-0.6081272,2.513912,-0.2066613,0.02237055,0.1395496,306,-1065,68
2455.828,0.5756563,-9.255984,-0.5793968,2.571373,-0.1938781,0.02663161,0.1544633,284,-1016,84
2455.832,0.5795625,-9.160216,-0.6129156,2.604891,-0.1747034,0.04048005,0.1736381,263,-975,21
2455.836,0.5834688,-9.136274,-0.6464344,2.600103,-0.1533981,0.05326322,0.1842907,329,-1005,27
2455.84,0.587375,-9.064447,-0.6943185,2.647987,-0.1342233,0.05752428,0.1917476,291,-1031,51
2455.844,0.5912813,-9.059659,-0.6512229,2.710236,-0.1257012,0.05965481,0.1960087,263,-1031,76
2455.848,0.5951875,-8.949526,-0.6943185,2.700659,-0.09800433,0.07456851,0.1992044,281,-1013,58
2455.852,0.5990938,-8.896853,-0.6464344,2.710236,-0.07563377,0.08309063,0.1960087,244,-1017,3
2455.855,0.603,-8.801085,-0.6607997,2.829946,-0.05752428,0.08415589,0.1906823,295,-1041,25
2455.859,0.6069063,-8.729259,-0.56982,2.887407,-0.03408846,0.09161274,0.1842907,328,-1059,48
2455.863,0.6108125,-8.619126,-0.4979939,2.911349,-0.006391587,0.108657,0.1725728,275,-1072,61
2455.867,0.6147188,-8.57603,-0.4309563,2.887407,0.02556635,0.108657,0.1544633,247,-990,-3
2455.871,0.618625,-8.461109,-0.3974375,2.834735,0.05219796,0.1043959,0.1331581,325,-993,2
2455.875,0.6225313,-8.42759,-0.3926491,2.772486,0.08202536,0.1097222,0.1097222,293,-1071,18
2455.879,0.6264375,-8.312668,-0.4548983,2.738967,0.108657,0.1043959,0.08415589,314,-1088,65
2455.883,0.6303438,-8.283938,-0.3926491,2.695871,0.144876,0.07989483,0.04474111,283,-1032,54
2455.887,0.63425,-8.221689,-0.3399766,2.662352,0.169377,0.06498113,0.01278317,285,-991,23
2455.891,0.6381563,-8.212112,-0.3351882,2.595315,0.1917476,0.05645902,-0.02024002,295,-1043,16
2455.895,0.6420625,-8.145074,-0.3256114,2.446874,0.2066613,0.04687164,-0.05645902,310,-1036,39
2455.898,0.6459688,-8.111555,-0.2920926,2.336741,0.2322276,0.03089267,-0.1097222,272,-1016,56
2455.902,0.649875,-8.101978,-0.2106897,2.27928,0.2450108,0.03728426,-0.1502023,340,-1006,10
2455.906,0.6537813,-8.207323,-0.2106897,2.126051,0.2567287,0.05432849,-0.1896171,329,-1002,26
2455.91,0.6576875,-8.303091,-0.2394202,2.035071,0.2705772,0.06817692,-0.2311624,321,-1037,17
2455.914,0.6615938,-8.470685,-0.2059013,1.924938,0.2801645,0.09374327,-0.2790993,297,-1076,71
2455.918,0.6655,-8.710106,-0.225055,1.790863,0.2844256,0.1246359,-0.3131877,277,-1011,72
2455.922,0.6694063,-8.949526,-0.2537854,1.719037,0.2854909,0.1597897,-0.3376888,261,-982,18
2455.926,0.6733125,-9.227253,-0.2011129,1.575385,0.2908172,0.1778992,-0.3611246,334,-1003,29
2455.93,0.6772188,-9.605537,-0.1723825,1.398214,0.2918825,0.2024002,-0.3834952,308,-1061,51
2455.934,0.681125,-9.849746,-0.1867477,1.340753,0.2908172,0.2279666,-0.386691,234,-1075,65
2455.938,0.6850313,-10.10353,-0.1292869,1.086968,0.294013,0.2386192,-0.3920173,271,-1004,21
2455.941,0.6889375,-10.35253,-0.1197101,0.9672575,0.3046656,0.2364887,-0.3888215,299,-1008,8
2455.945,0.6928438,-10.56322,0.03351882,0.7230489,0.3025351,0.2396845,-0.3781689,301,-1063,15
2455.949,0.69675,-10.71645,0,0.6320692,0.3036004,0.2482066,-0.3600594,293,-1027,30
2455.953,0.7006563,-10.84573,0.08619126,0.5889736,0.3046656,0.241815,-0.3419499,263,-1031,80
2455.957,0.7045625,-10.81221,0.1388637,0.5363012,0.3004046,0.2332929,-0.3227751,289,-998,16
2455.961,0.7084688,-10.92714,0.1580173,0.4740519,0.2908172,0.241815,-0.2961435,308,-1015,-12
2455.965,0.712375,-11.03248,0.1867477,0.4405331,0.2759035,0.2524677,-0.2588593,346,-1071,65
2455.969,0.7162813,-11.11388,0.1867477,0.4070143,0.2599245,0.2450108,-0.2300971,289,-1068,65
2455.973,0.7201875,-11.21923,0.2154781,0.3974375,0.2279666,0.2439456,-0.1981392,300,-1013,77
2455.977,0.7240938,-11.32457,0.2442086,0.4165911,0.1928129,0.2535329,-0.1629855,237,-1050,4
2455.98,0.728,-11.57357,0.2920926,0.3399766,0.1502023,0.257794,-0.112918,310,-1039,27
2455.984,0.7319063,-11.69328,0.3926491,0.3926491,0.1107875,0.2535329,-0.07989483,286,-1051,55
2455.988,0.7358125,-11.73159,0.5075708,0.4405331,0.06072007,0.2567287,-0.04261058,235,-994,79
2455.992,0.7397188,-11.81299,0.6847417,0.4261679,0.0149137,0.2599245,-0.01065264,261,-1025,45
2455.996,0.743625,-11.78905,0.8523358,0.4309563,-0.02769688,0.2599245,0.03089267,345,-1010,27
2456,0.7475313,-11.74595,1.058237,0.5027823,-0.06817692,0.2556635,0.05965481,292,-1036,54
2456.004,0.7514375,-11.66934,1.13964,0.5171476,-0.1043959,0.2609898,0.08522115,289,-1062,46
2456.008,0.7553438,-11.60709,1.283292,0.5841852,-0.1278317,0.2673814,0.1065264,198,-1025,72
2456.012,0.75925,-11.42513,1.436521,0.6560113,-0.1555286,0.2727077,0.128897,275,-964,7
2456.016,0.7631563,-11.27669,1.484405,0.6512229,-0.181095,0.2759035,0.1427454,300,-1066,20
2456.02,0.7670625,-11.15698,1.479617,0.7517793,-0.2002697,0.2844256,0.1576591,303,-1095,66
2456.023,0.7709688,-11.05642,1.422156,0.7469909,-0.2066613,0.2929477,0.1672465,230,-1024,62
2456.027,0.774875,-10.94629,1.345541,0.8858546,-0.2247708,0.2822951,0.1832255,247,-1030,24
2456.031,0.7787813,-10.82658,1.244985,0.914585,-0.2450108,0.2727077,0.1949434,315,-1013,42
2456.035,0.7826875,-10.75954,1.225831,1.043872,-0.2567287,0.2620551,0.2098571,337,-1062,47
2456.039,0.7865938,-10.66856,1.149217,1.11091,-0.2641856,0.2460761,0.2183792,258,-1079,12
2456.043,0.7905,-10.56322,1.029507,1.182736,-0.2801645,0.2194445,0.2290319,267,-1005,71
2456.047,0.7944063,-10.53928,0.9385271,1.283292,-0.2876214,0.1906823,0.2354234,258,-994,-8
2456.051,0.7983125,-10.42914,0.7996634,1.297657,-0.2865561,0.1715076,0.2428803,337,-1102,11
2456.055,0.8022188,-10.35253,0.7230489,1.292869,-0.2865561,0.1470065,0.2492719,322,-1075,69
2456.059,0.806125,-10.27113,0.593762,1.312023,-0.2844256,0.1107875,0.2492719,232,-1099,93
2456.062,0.8100313,-10.14184,0.4596867,1.254562,-0.2865561,0.0660464,0.2503371,209,-1002,-9
2456.066,0.8139375,-10.13226,0.3830723,1.268927,-0.2812298,0.0330232,0.2492719,307,-987,30
2456.07,0.8178438,-10.00776,0.2154781,1.192312,-0.2801645,-0.007456851,0.2514024,315,-1061,25
2456.074,0.82175,-9.816227,0.1915361,1.134852,-0.2759035,-0.05539375,0.2492719,308,-1075,59
2456.078,0.8256563,-9.624691,0.04309563,1.086968,-0.2790993,-0.112918,0.2460761,302,-990,43
2456.082,0.8295625,-9.562441,-0.1340753,1.091756,-0.273773,-0.1502023,0.2460761,263,-999,40
2456.086,0.8334688,-9.414001,-0.2585738,1.034295,-0.2663161,-0.185356,0.2439456,348,-1053,7
2456.09,0.837375,-9.284714,-0.3830723,1.024718,-0.2567287,-0.2183792,0.2439456,336,-1039,73
2456.094,0.8412813,-9.131485,-0.5650316,0.9385271,-0.2450108,-0.2460761,0.241815,287,-1079,33
2456.098,0.8451875,-9.059659,-0.7182605,0.8619126,-0.2354234,-0.2609898,0.237554,264,-1027,33
2456.102,0.8490938,-8.954314,-0.8571242,0.794875,-0.2247708,-0.273773,0.2332929,281,-1043,33
2456.105,0.853,-8.896853,-0.9241618,0.7230489,-0.2183792,-0.2801645,0.2269013,313,-1070,46
2456.109,0.8569063,-8.90643,-1.144428,0.6272808,-0.2098571,-0.278034,0.2162487,294,-1068,70
2456.113,0.8608125,-8.791508,-1.16837,0.521936,-0.2024002,-0.2716424,0.2087918,233,-1026,78
2456.117,0.8647188,-8.734048,-1.154005,0.4548983,-0.1970739,-0.2609898,0.1992044,271,-1051,17
2456.121,0.868625,-8.753201,-1.182736,0.3782839,-0.1970739,-0.2450108,0.1917476,287,-990,26
2456.125,0.8725313,-8.66701,-1.216254,0.3495534,-0.1949434,-0.2162487,0.1736381,304,-1055,81
2456.129,0.8764375,-8.628703,-1.225831,0.3782839,-0.1842907,-0.1938781,0.165116,274,-1040,32
2456.133,0.8803438,-8.647856,-1.192312,0.3016694,-0.185356,-0.1704423,0.1555286,236,-1014,22
2456.137,0.88425,-8.561665,-1.04866,0.2585738,-0.1821602,-0.1502023,0.1438107,269,-1034,21
2456.141,0.8881563,-8.504204,-0.9911995,0.2920926,-0.1672465,-0.112918,0.1299623,307,-1069,-1
2456.145,0.8920625,-8.485051,-0.9481039,0.2011129,-0.1555286,-0.08309063,0.1203749,309,-1046,53
2456.148,0.8959688,-8.528146,-0.8379706,0.1867477,-0.144876,-0.05965481,0.1107875,261,-1026,51
2456.152,0.899875,-8.532935,-0.7900865,0.1819593,-0.1310275,-0.0330232,0.1001349,266,-1000,-18
2456.156,0.9037813,-8.480262,-0.6991069,0.1771709,-0.1161138,-0.008522115,0.09161274,290,-991,38
2456.16,0.9076875,-8.513781,-0.6320692,0.2202666,-0.09374327,0.02237055,0.07989483,324,-1052,48
2456.164,0.9115938,-8.499416,-0.545878,0.1484405,-0.08202536,0.04048005,0.07030745,235,-1083,40
2456.168,0.9155,-8.585607,-0.5171476,0.1723825,-0.06924219,0.05752428,0.06178534,246,-1023,65
2456.172,0.9194063,-8.614338,-0.4740519,0.1675941,-0.05432849,0.07243798,0.05326322,266,-988,47
2456.176,0.9233125,-8.700529,-0.3687071,0.1963245,-0.03515373,0.08309063,0.03515373,305,-1047,-5
2456.18,0.9272188,-8.734048,-0.2873042,0.225055,-0.02450108,0.08841695,0.02556635,329,-1057,78
2456.184,0.931125,-8.777143,-0.2442086,0.1963245,-0.01917476,0.09267801,0.01384844,249,-1048,65
2456.188,0.9350313,-8.820239,-0.1915361,0.1915361,-0.01065264,0.09480853,0.004261058,240,-1018,-15
2456.191,0.9389375,-8.925584,-0.1628057,0.2011129,-0.002130529,0.09267801,-0.01171791,305,-995,22
2456.195,0.9428438,-8.973468,-0.1244985,0.09097966,0.003195793,0.09161274,-0.01917476,313,-1014,50
2456.199,0.94675,-9.050082,-0.1005565,0.04309563,0.002130529,0.09161274,-0.02663161,247,-1081,86
2456.203,0.9506563,-9.074024,0,0.07182605,0,0.08735168,-0.03515373,250,-1026,40
2456.207,0.9545625,-9.160216,0.03830723,0.09097966,-0.001065264,0.07989483,-0.04154531,267,-1042,31
2456.211,0.9584688,-9.174581,0.1244985,0.04309563,-0.008522115,0.07350325,-0.04580637,302,-1087,21
2456.215,0.962375,-9.251195,0.1628057,0,-0.01704423,0.0660464,-0.05219796,259,-1056,68
2456.219,0.9662813,-9.275137,0.2346318,0.009576807,-0.02450108,0.05006743,-0.05645902,218,-1053,69
2456.223,0.9701875,-9.260772,0.2920926,-0.06703765,-0.03834952,0.03089267,-0.05539375,225,-1050,45
2456.227,0.9740938,-9.342175,0.4022259,-0.004788403,-0.05432849,0.01917476,-0.05752428,300,-1017,0
2456.23,0.978,-9.361328,0.4932055,-0.06703765,-0.07137272,0.006391587,-0.05539375,282,-1084,36
2456.234,0.9819063,-9.351752,0.5889736,-0.07661445,-0.08735168,0,-0.05219796,320,-1033,34
2456.238,0.9858125,-9.428366,0.617704,-0.1436521,-0.1118528,-0.003195793,-0.04580637,231,-1034,42
2456.242,0.9897188,-9.433155,0.6607997,-0.1867477,-0.1310275,-0.00958738,-0.04048005,270,-998,71
2456.246,0.993625,-9.500192,0.7374141,-0.1675941,-0.1502023,-0.02024002,-0.03408846,303,-1007,60
2456.25,0.9975313,-9.485827,0.8044518,-0.1628057,-0.1736381,-0.02343582,-0.02663161,301,-1032,44
2456.254,1.001438,-9.533711,0.914585,-0.2106897,-0.1949434,-0.02769688,-0.0149137,249,-1085,29
2456.258,1.005344,-9.557653,0.8762778,-0.2106897,-0.2151834,-0.03408846,-0.001065264,253,-1012,32
2456.262,1.00925,-9.605537,0.9241618,-0.2346318,-0.2332929,-0.04048005,0.007456851,317,-1010,31
2456.266,1.013156,-9.615114,0.9624691,-0.2825158,-0.2535329,-0.04474111,0.01171791,307,-1043,-2
2456.27,1.017063,-9.662998,1.010353,-0.3160346,-0.2727077,-0.04900216,0.01704423,320,-1036,76
2456.273,1.020969,-9.71567,1.04866,-0.3016694,-0.2897519,-0.05858954,0.02769688,296,-1016,79
2456.277,1.024875,-9.734824,1.082179,-0.3734955,-0.3036004,-0.0628506,0.0330232,262,-1008,34
2456.281,1.028781,-9.758766,1.11091,-0.3782839,-0.3185141,-0.0660464,0.03728426,269,-998,4
2456.285,1.032688,-9.734824,1.130063,-0.3926491,-0.334493,-0.07563377,0.04154531,324,-1085,70
2456.289,1.036594,-9.753978,1.106121,-0.3639187,-0.3547331,-0.08415589,0.04687164,317,-1090,67
2456.293,1.0405,-9.758766,1.11091,-0.3112462,-0.3675162,-0.0958738,0.04900216,252,-1036,33
2456.297,1.044406,-9.734824,1.11091,-0.3591302,-0.3824299,-0.1075917,0.05006743,309,-1029,14
2456.301,1.048313,-9.672575,1.086968,-0.3303998,-0.4048005,-0.1139833,0.05219796,310,-1059,42
2456.305,1.052219,-9.706094,1.058237,-0.3016694,-0.4303668,-0.1193096,0.05006743,297,-1055,80
2456.309,1.056125,-9.658209,1.13964,-0.320823,-0.44315,-0.1257012,0.04900216,270,-1018,78
2456.312,1.060031,-9.619902,1.16837,-0.2873042,-0.4580637,-0.1363538,0.05006743,270,-1023,-12
2456.316,1.063938,-9.610325,1.163582,-0.2154781,-0.4719121,-0.1502023,0.04474111,342,-1005,55
2456.32,1.067844,-9.538499,1.125275,-0.2346318,-0.4964132,-0.1565939,0.04474111,356,-1048,96
2456.324,1.07175,-9.481039,1.154005,-0.2059013,-0.5123922,-0.1565939,0.04261058,273,-1027,63
2456.328,1.075656,-9.500192,1.101333,-0.2202666,-0.5273059,-0.1565939,0.03834952,288,-1016,31
2456.332,1.079563,-9.457097,1.115698,-0.1963245,-0.5336975,-0.1544633,0.03728426,267,-1026,-5
2456.336,1.083469,-9.442731,1.120486,-0.1532289,-0.5443501,-0.1565939,0.03515373,328,-1027,25
2456.34,1.087375,-9.452308,1.177947,-0.08619126,-0.5592638,-0.1576591,0.0330232,322,-1083,75
2456.344,1.091281,-9.47625,1.23062,-0.1053449,-0.5741775,-0.1576591,0.03195793,246,-1083,42
2456.348,1.095188,-9.481039,1.307234,-0.1532289,-0.5848302,-0.1523328,0.03089267,256,-1044,16
2456.352,1.099094,-9.562441,1.393425,-0.2920926,-0.592287,-0.144876,0.03408846,305,-1018,68
2456.355,1.103,-9.653421,1.479617,-0.3399766,-0.6029397,-0.1235707,0.03941478,305,-1069,11
2456.359,1.106906,-9.634267,1.632846,-0.4213795,-0.6135923,-0.1065264,0.04367584,305,-1084,57
2456.363,1.110813,-9.768343,1.70946,-0.4884171,-0.6221144,-0.09267801,0.04900216,261,-1014,79
2456.367,1.114719,-9.80665,1.814805,-0.5746084,-0.6380934,-0.0777643,0.05752428,233,-1005,-11
2456.371,1.118625,-9.979033,2.025495,-0.5841852,-0.6519418,-0.05539375,0.07669904,317,-1056,44
2456.375,1.122531,-10.07959,2.1883,-0.6560113,-0.6625945,-0.02876214,0.09161274,290,-1056,96
2456.379,1.126438,-10.16099,2.293645,-0.7757213,-0.6711166,-0.001065264,0.1118528,242,-1097,68
2456.383,1.130344,-10.30464,2.466028,-0.8283938,-0.6732471,0.02450108,0.1363538,286,-1017,6
2456.387,1.13425,-10.56322,2.547431,-0.8475474,-0.6764429,0.05006743,0.1576591,317,-1003,-10
2456.391,1.138156,-10.79785,2.528277,-0.7757213,-0.6700513,0.05006743,0.181095,316,-1061,34
2456.395,1.142063,-11.066,2.600103,-0.6991069,-0.6466155,0.03941478,0.1960087,349,-1067,68
2456.398,1.145969,-11.30063,2.63841,-0.7134721,-0.628506,0.02450108,0.201335,290,-999,79
2456.402,1.149875,-11.77947,2.504335,-0.8619126,-0.6199839,0.01597897,0.2045308,277,-1025,33
2456.406,1.153781,-12.06678,2.317587,-0.7230489,-0.6135923,0.007456851,0.2098571,323,-1062,14
2456.41,1.157688,-12.44506,2.025495,-0.2394202,-0.6029397,0.002130529,0.2141182,306,-1042,56
2456.414,1.161594,-12.67969,1.675941,0.2633622,-0.5869607,0.005326322,0.221575,284,-1080,43
2456.418,1.1655,-13.2112,1.201889,1.355118,-0.556068,0.04367584,0.2407498,246,-1054,34
2456.422,1.169406,-13.67089,0.7278373,2.561796,-0.5251754,0.1001349,0.2716424,318,-998,29
2456.426,1.173313,-13.96777,0.3112462,4.443638,-0.4857606,0.1821602,0.3057309,340,-1066,-22
2456.43,1.177219,-14.49929,-0.2106897,5.93762,-0.4516721,0.2908172,0.3834952,331,-1038,106
2456.434,1.181125,-15.41866,-0.5650316,4.434061,-0.4367584,0.4889564,0.5187838,258,-1025,60
2456.438,1.185031,-16.42422,-1.029507,2.284068,-0.4452805,0.6338323,0.608266,310,-990,53
2456.441,1.188938,-17.25741,-2.087744,0.7996634,-0.4261058,0.7084008,0.6572682,318,-994,13
2456.445,1.192844,-17.74582,-3.045425,0.5841852,-0.3557983,0.6562029,0.6796387,331,-1098,84
2456.449,1.19675,-17.72188,-4.601656,0.05746084,-0.2269013,0.4729774,0.684965,247,-1099,74
2456.453,1.200656,-17.43458,-6.349423,-0.7182605,0.001065264,0.1480718,0.6583334,258,-1041,51
2456.457,1.204563,-16.42901,-6.789956,-0.8523358,0.1597897,-0.1107875,0.6072007,285,-995,-6
2456.461,1.208469,-15.28937,-6.540959,-0.344765,0.2972088,-0.3749731,0.5411543,342,-1057,-6
2456.465,1.212375,-14.29338,-6.105214,0.3974375,0.459129,-0.6327671,0.4942827,315,-1076,61
2456.469,1.216281,-13.21599,-4.855441,0.6512229,0.6870956,-0.9044095,0.4665858,246,-1019,33
2456.473,1.220188,-12.48816,-3.758897,0.617704,0.7840346,-1.016262,0.4569984,318,-1051,16
2456.477,1.224094,-11.77468,-2.786851,0.1484405,0.8287757,-1.041829,0.4282363,284,-1014,23
2456.48,1.228,-10.90798,-1.608904,-0.866701,0.8309063,-0.9757822,0.3845605,303,-1055,61
2456.484,1.231906,-10.07959,-0.1819593,-1.838747,0.7765778,-0.7275756,0.3312972,287,-1077,63
2456.488,1.235813,-9.959879,0.5027823,-1.651999,0.7478156,-0.4729774,0.2801645,242,-1020,30
2456.492,1.239719,-10.43872,0.9672575,-0.4979939,0.7584683,-0.2396845,0.2024002,322,-989,0
2456.496,1.243625,-11.28148,1.240196,1.235408,0.8032094,-0.08841695,0.1193096,309,-1055,29
2456.5,1.247531,-12.29183,1.599327,3.246537,0.84582,-0.0149137,0.0181095,322,-1089,59
2456.504,1.251438,-12.84729,1.924938,4.012682,0.8213189,0.005326322,-0.0298274,255,-1025,57
2456.508,1.255344,-13.51287,2.240973,4.232949,0.7872304,0.008522115,-0.0660464,231,-1018,16
2456.512,1.25925,-14.10664,2.418144,4.371812,0.7659251,-0.01171791,-0.09480853,299,-1063,21
2456.516,1.263156,-14.73871,2.331952,4.170699,0.7446198,-0.0958738,-0.1331581,280,-1060,79
2456.52,1.267063,-14.84405,1.972822,3.950433,0.7201188,-0.1747034,-0.1778992,246,-1076,40
2456.523,1.270969,-14.47055,1.565808,3.691859,0.7020093,-0.2631203,-0.2343582,327,-1100,60
2456.527,1.274875,-14.16889,1.493982,3.596091,0.7084008,-0.2833603,-0.2567287,235,-1034,-12
2456.531,1.278781,-13.68526,1.594538,3.720589,0.7403588,-0.2929477,-0.2908172,319,-1038,18
2456.535,1.282688,-13.36922,1.714248,3.974375,0.7808388,-0.294013,-0.294013,331,-1053,61
2456.539,1.286594,-13.18726,1.503559,4.304775,0.8000136,-0.3121225,-0.273773,247,-1047,35
2456.543,1.2905,-12.95742,1.11091,4.572925,0.8170578,-0.3494067,-0.2428803,242,-1041,-13
2456.547,1.294406,-12.47858,0.7517793,4.673482,0.8202536,-0.3994742,-0.2087918,302,-1026,23
2456.551,1.298313,-12.01889,0.3543418,4.793192,0.8159926,-0.4804343,-0.1470065,277,-1058,53
2456.555,1.302219,-11.4778,0.1340753,4.788403,0.8010789,-0.5411543,-0.09161274,287,-1054,54
2456.559,1.306125,-10.92714,-0.04309563,4.596867,0.7744472,-0.5805691,-0.02237055,314,-1025,72
2456.562,1.310031,-10.34774,-0.09576807,4.443638,0.7286409,-0.6018744,0.05645902,257,-1030,4
2456.566,1.313938,-9.667786,-0.1532289,4.309563,0.6700513,-0.6210492,0.1438107,291,-1012,37
2456.57,1.317844,-9.188946,-0.1819593,4.180276,0.6455502,-0.628506,0.2034655,290,-1067,38
2456.574,1.32175,-8.705317,-0.1867477,4.094085,0.6135923,-0.6295713,0.2545982,293,-1076,64
2456.578,1.325656,-8.250419,-0.1197101,4.07972,0.5581986,-0.6231797,0.3057309,273,-1008,33
2456.582,1.329563,-7.838616,0.01436521,3.955221,0.4964132,-0.5976133,0.3589941,301,-989,7
2456.586,1.333469,-7.656657,0.004788403,3.878607,0.4665858,-0.5763081,0.4048005,269,-1077,17
2456.59,1.337375,-7.455544,0.1292869,3.596091,0.427171,-0.5432849,0.4410195,288,-1045,46
2456.594,1.341281,-7.383718,0.2106897,3.505111,0.3845605,-0.5049353,0.4569984,232,-1040,72
2456.598,1.345188,-7.374141,0.2777274,3.270479,0.3366236,-0.4569984,0.4644553,222,-1054,3
2456.602,1.349094,-7.465121,0.3543418,3.227384,0.3121225,-0.4165184,0.4644553,268,-1035,1
2456.605,1.353,-7.536947,0.3782839,3.021482,0.2854909,-0.3845605,0.4495416,297,-1048,64
2456.609,1.356906,-7.694964,0.4453215,2.911349,0.2652508,-0.3589941,0.4250405,243,-1050,67
2456.613,1.360813,-7.924807,0.6320692,2.868254,0.2439456,-0.3323625,0.3845605,272,-1021,73
2456.617,1.364719,-8.087613,0.794875,2.777274,0.237554,-0.3185141,0.3462109,230,-1006,20
2456.621,1.368625,-8.331822,0.8236054,2.657564,0.2354234,-0.3110572,0.3025351,262,-1080,8
2456.625,1.372531,-8.604761,1.010353,2.662352,0.2354234,-0.3057309,0.2535329,277,-1037,89
2456.629,1.376438,-8.978256,0.9864111,2.633622,0.2396845,-0.3121225,0.1725728,247,-1003,101
2456.633,1.380344,-9.318233,0.8810662,2.657564,0.2524677,-0.3227751,0.1033307,248,-998,45
2456.637,1.38425,-9.461885,0.7565677,2.657564,0.2695119,-0.3451457,0.03089267,280,-1042,16
2456.641,1.388156,-9.528923,0.5171476,2.580949,0.2865561,-0.3675162,-0.03834952,310,-1065,41
2456.645,1.392063,-9.509769,0.3399766,2.552219,0.3025351,-0.3771036,-0.09693906,227,-1041,44
2456.648,1.395969,-9.337386,0.04309563,2.351106,0.3281014,-0.3792341,-0.1629855,257,-1021,65
2456.652,1.399875,-9.141062,-0.1963245,2.269703,0.3494067,-0.3653857,-0.2077266,249,-999,35
2456.656,1.403781,-8.872911,-0.4501099,2.197877,0.3728426,-0.350472,-0.2460761,321,-1059,-2
2456.66,1.407688,-8.552088,-0.5889736,2.15957,0.3888215,-0.3238404,-0.2716424,319,-1055,86
2456.664,1.411594,-8.082825,-0.9624691,2.073379,0.406931,-0.2727077,-0.2929477,227,-1071,39
2456.668,1.4155,-7.809886,-1.211466,2.087744,0.4207795,-0.237554,-0.3078614,199,-1012,9
2456.672,1.419406,-7.599196,-1.417367,2.140416,0.4356932,-0.2141182,-0.3163835,273,-991,-1
2456.676,1.423313,-7.331045,-1.561019,2.173935,0.4548679,-0.1970739,-0.3217099,296,-1110,10
2456.68,1.427219,-7.158663,-1.814805,2.140416,0.4665858,-0.1789644,-0.3259709,298,-1054,43
2456.684,1.431125,-7.053318,-1.905785,2.173935,0.4751079,-0.169377,-0.3281014,280,-995,69
2456.688,1.435031,-6.909666,-2.044648,2.1883,0.4857606,-0.1608549,-0.3312972,264,-1025,14
2456.691,1.438938,-6.919243,-2.154781,2.1883,0.5006743,-0.1533981,-0.3334278,330,-1065,8
2456.695,1.442844,-6.86657,-2.408567,2.116474,0.5177185,-0.1470065,-0.3355583,296,-1076,73
2456.699,1.44675,-6.842628,-2.513912,2.130839,0.531567,-0.1438107,-0.3366236,277,-1043,49
2456.703,1.450656,-6.770802,-2.580949,2.087744,0.5464807,-0.1470065,-0.3387541,272,-1020,12
2456.707,1.454563,-6.852205,-2.667141,2.106897,0.5645902,-0.1480718,-0.3376888,320,-1015,20
2456.711,1.458469,-6.861782,-2.628833,2.078167,0.5901565,-0.1427454,-0.3355583,285,-1068,35
2456.715,1.462375,-6.890512,-2.662352,2.097321,0.608266,-0.1416802,-0.3355583,295,-1031,88
2456.719,1.466281,-6.92882,-2.624045,2.197877,0.6231797,-0.1406149,-0.3366236,255,-998,64
2456.723,1.470188,-6.876147,-2.533065,2.221819,0.6423545,-0.1427454,-0.334493,243,-983,-17
2456.727,1.474094,-6.785168,-2.437297,2.226608,0.6753777,-0.1438107,-0.3291667,294,-1006,20
2456.73,1.478,-6.732495,-2.331952,2.25055,0.700944,-0.1384844,-0.3249057,315,-1052,69
2456.734,1.481906,-6.617573,-2.221819,2.245761,0.7286409,-0.1352886,-0.3206446,226,-1073,53
2456.738,1.485813,-6.579266,-2.049437,2.375048,0.7456851,-0.1352886,-0.3163835,251,-986,39
2456.742,1.489719,-6.517017,-1.881843,2.437297,0.7584683,-0.1374191,-0.3078614,284,-1039,3
2456.746,1.493625,-6.493075,-1.671153,2.533065,0.7637946,-0.1342233,-0.2993393,289,-1045,13
2456.75,1.497531,-6.411672,-1.489193,2.48997,0.7712515,-0.1257012,-0.294013,299,-1043,51
2456.754,1.501438,-6.263232,-1.244985,2.384625,0.7755125,-0.1097222,-0.2876214,256,-1024,82
2456.758,1.505344,-6.258443,-1.086968,2.418144,0.7829694,-0.09267801,-0.2790993,232,-1010,41
2456.762,1.50925,-6.186617,-0.9289502,2.355894,0.7861652,-0.05858954,-0.2652508,314,-1031,28
2456.766,1.513156,-6.210559,-0.7374141,2.39899,0.7872304,-0.0181095,-0.2535329,311,-1075,54
2456.77,1.517063,-6.14831,-0.56982,2.365471,0.7925567,0.03089267,-0.2354234,255,-1028,43
2456.773,1.520969,-6.191405,-0.4596867,2.37026,0.7914915,0.0809601,-0.2151834,265,-1033,68
2456.777,1.524875,-6.181829,-0.2537854,2.25055,0.7819041,0.1523328,-0.1864213,249,-1027,13
2456.781,1.528781,-6.215348,-0.04309563,2.25055,0.7691209,0.2002697,-0.1704423,296,-1064,4
2456.785,1.532688,-6.29675,0.2777274,2.207454,0.7510114,0.2439456,-0.1470065,267,-1057,82
2456.789,1.536594,-6.38773,0.4788403,2.078167,0.7297061,0.278034,-0.1182444,228,-998,65
2456.793,1.5405,-6.41646,0.7469909,2.03986,0.7052051,0.3227751,-0.08415589,245,-1001,29
2456.797,1.544406,-6.526594,0.9624691,2.025495,0.680704,0.3547331,-0.06498113,323,-1013,13
2456.801,1.548313,-6.636727,1.154005,2.06859,0.6519418,0.3813647,-0.04367584,270,-1090,39
2456.805,1.552219,-6.684611,1.321599,2.059013,0.6253102,0.4048005,-0.01597897,268,-1084,76
2456.809,1.556125,-6.780379,1.364695,2.020706,0.5826996,0.4293016,0.008522115,245,-1002,87
2456.812,1.560031,-6.789956,1.49877,1.900996,0.5528722,0.4463458,0.01917476,266,-1018,39
2456.816,1.563938,-6.823475,1.527501,1.824382,0.5326322,0.4580637,0.03408846,304,-1046,31
2456.82,1.567844,-6.833052,1.637634,1.814805,0.4964132,0.4623248,0.04154531,308,-1042,68
2456.824,1.57175,-6.895301,1.68073,1.728614,0.4527374,0.4697816,0.05006743,227,-1044,54
2456.828,1.575656,-6.976704,1.628057,1.695095,0.4175837,0.4783037,0.05432849,250,-1025,12
2456.832,1.579563,-7.029376,1.690306,1.623269,0.3749731,0.4910869,0.05006743,295,-992,31
2456.836,1.583469,-7.187393,1.675941,1.49877,0.3387541,0.5060006,0.04580637,298,-1059,22
2456.84,1.587375,-7.278373,1.637634,1.374272,0.298274,0.5241101,0.04367584,230,-1048,20
2456.844,1.591281,-7.402872,1.61848,1.254562,0.2460761,0.5326322,0.0330232,215,-1023,85
2456.848,1.595188,-7.52737,1.522712,1.206678,0.205596,0.535828,0.02343582,233,-1002,25
2456.852,1.599094,-7.690176,1.489193,1.130063,0.1683118,0.5336975,0.01917476,285,-1078,41
2456.855,1.603,-7.843405,1.35033,1.130063,0.1363538,0.5273059,0.01065264,303,-1063,76
2456.859,1.606906,-8.111555,1.173159,1.16837,0.1033307,0.5145227,0.003195793,250,-1055,74
2456.863,1.610813,-8.331822,1.04866,1.197101,0.07989483,0.4985438,0.003195793,250,-1023,30
2456.867,1.614719,-8.542512,0.9385271,1.182736,0.06391587,0.4889564,0.003195793,292,-1033,8
2456.871,1.618625,-8.743624,0.8571242,1.192312,0.04367584,0.4772385,0.005326322,299,-1069,0
2456.875,1.622531,-9.074024,0.5650316,1.158794,0.02556635,0.4527374,0.0149137,309,-1081,41
2456.879,1.626438,-9.227253,0.4979939,1.173159,0.01278317,0.4367584,0.02450108,288,-1024,31
2456.883,1.630344,-9.500192,0.3160346,1.163582,0.005326322,0.4207795,0.03195793,226,-1027,16
2456.887,1.63425,-9.720459,0.1628057,1.11091,-0.004261058,0.4037352,0.04261058,313,-1002,41
2456.891,1.638156,-10.08917,-0.06224924,1.086968,-0.007456851,0.3792341,0.05645902,304,-1062,72
2456.895,1.642063,-10.30464,-0.225055,1.106121,-0.003195793,0.3675162,0.0660464,247,-1075,78
2456.898,1.645969,-10.60152,-0.4309563,1.058237,0.008522115,0.3515373,0.07563377,261,-1022,38
2456.902,1.649875,-10.81221,-0.56982,1.029507,0.02024002,0.3312972,0.0809601,281,-1009,20
2456.906,1.653781,-11.05642,-0.7661445,0.9624691,0.05006743,0.3036004,0.08841695,249,-1051,20
2456.91,1.657688,-11.21923,-0.8858546,0.8571242,0.07243798,0.278034,0.0958738,291,-1062,71
2456.914,1.661594,-11.41077,-1.053449,0.8571242,0.09906959,0.2545982,0.1033307,221,-1020,81
2456.918,1.6655,-11.49217,-1.115698,0.6512229,0.1257012,0.2322276,0.108657,247,-1037,37
2456.922,1.669406,-11.54963,-1.23062,0.5506664,0.1778992,0.205596,0.108657,280,-1034,42
2456.926,1.673313,-11.4778,-1.369483,0.4788403,0.2269013,0.1906823,0.1161138,286,-1082,39
2456.93,1.677219,-11.31021,-1.398214,0.4979939,0.2748382,0.1747034,0.1150486,203,-1083,93
2456.934,1.681125,-11.24796,-1.527501,0.5123592,0.330232,0.149137,0.1225054,222,-1012,81
2456.938,1.685031,-11.08515,-1.541866,0.5410896,0.3834952,0.1225054,0.1267665,293,-1021,5
2456.941,1.688938,-10.9846,-1.584961,0.6703765,0.4516721,0.07243798,0.1352886,291,-1027,8
2456.945,1.692844,-10.88883,-1.58975,0.6943185,0.4974785,0.03621899,0.1459412,323,-1087,54
2456.949,1.69675,-10.76912,-1.623269,0.7182605,0.5432849,-0.006391587,0.1587244,254,-1025,91
2456.953,1.700656,-10.63983,-1.714248,0.8236054,0.5837649,-0.04367584,0.1757686,242,-1001,50
2456.957,1.704563,-10.5297,-1.704672,0.7900865,0.6380934,-0.08841695,0.1906823,279,-994,59
2456.961,1.708469,-10.4483,-1.656788,0.7661445,0.6732471,-0.1139833,0.2045308,299,-1080,33
2456.965,1.712375,-10.4052,-1.613692,0.6655881,0.7094661,-0.1299623,0.2119876,226,-1058,46
2456.969,1.716281,-10.37168,-1.49877,0.593762,0.7478156,-0.144876,0.2237055,239,-992,65
2456.973,1.720188,-10.41478,-1.355118,0.5267244,0.7882957,-0.165116,0.2258361,238,-1024,5
2456.977,1.724094,-10.42914,-1.077391,0.3830723,0.8117315,-0.181095,0.2247708,274,-1101,35
2456.98,1.728,-10.39562,-0.9385271,0.2298434,0.8277105,-0.1821602,0.2183792,280,-1070,93
2456.984,1.731906,-10.46745,-0.7182605,0.1580173,0.8372978,-0.1778992,0.2024002,276,-1103,62
2456.988,1.735813,-10.45787,-0.3591302,-0.08619126,0.8372978,-0.1725728,0.1704423,226,-1029,34
2456.992,1.739719,-10.4866,-0.1436521,-0.2106897,0.8383631,-0.149137,0.1406149,273,-1022,32
2456.996,1.743625,-10.46266,0.1101333,-0.3974375,0.8351673,-0.1161138,0.1065264,312,-1060,47
2457,1.747531,-10.5297,0.3543418,-0.5410896,0.8191884,-0.0777643,0.06391587,258,-1014,52
2457.004,1.751438,-10.70687,0.593762,-0.5746084,0.7808388,-0.03515373,0.001065264,224,-1046,89
2457.008,1.755344,-10.86968,0.6799533,-0.5027823,0.7286409,-0.01171791,-0.05006743,247,-1046,9
2457.012,1.75925,-11.12825,0.7517793,-0.521936,0.660464,0.001065264,-0.1075917,251,-1066,28
2457.016,1.763156,-11.38203,0.8092402,-0.6368576,0.5890912,0.006391587,-0.165116,249,-1054,112
2457.02,1.767063,-11.69328,0.8954314,-0.7134721,0.5006743,-0.008522115,-0.2332929,204,-1074,32
2457.023,1.770969,-12.02368,0.9576807,-0.7230489,0.4335626,-0.03408846,-0.2727077,206,-1006,49
2457.027,1.774875,-12.30141,1.039084,-0.8331822,0.3675162,-0.06391587,-0.3036004,239,-1048,14
2457.031,1.778781,-12.58871,1.072602,-1.225831,0.3174488,-0.08841695,-0.3270362,275,-1043,15
2457.035,1.782688,-13.01488,1.154005,-1.628057,0.294013,-0.1107875,-0.334493,282,-1071,65
2457.039,1.786594,-13.35965,1.192312,-2.130839,0.2908172,-0.1480718,-0.334493,254,-1020,36
2457.043,1.7905,-13.71399,1.292869,-2.504335,0.3089267,-0.181095,-0.3174488,241,-1026,41
2457.047,1.794406,-14.00129,1.455675,-2.552219,0.350472,-0.2237055,-0.3025351,283,-1058,-4
2457.051,1.798313,-14.05875,1.73819,-2.130839,0.3994742,-0.2759035,-0.2886867,269,-1075,71
2457.055,1.802219,-14.03002,1.987187,-0.617704,0.4516721,-0.3281014,-0.2769688,222,-1070,73
2457.059,1.806125,-13.9965,1.977611,1.273715,0.4644553,-0.3291667,-0.2759035,239,-990,63
2457.062,1.810031,-13.71399,1.742979,3.782839,0.4388889,-0.2716424,-0.2950782,289,-990,38
2457.066,1.813938,-13.49851,1.120486,6.473921,0.3973436,-0.1374191,-0.3227751,272,-1052,66
2457.07,1.817844,-13.58949,0.8810662,6.41646,0.3004046,0.1608549,-0.3962784,277,-1069,86
2457.074,1.82175,-14.15452,0.6895301,3.936068,0.2556635,0.3930826,-0.4580637,194,-1052,71
2457.078,1.825656,-14.26944,1.417367,2.552219,0.2769688,0.5326322,-0.5113269,232,-1025,29
2457.082,1.829563,-14.00129,2.604891,2.293645,0.2332929,0.5763081,-0.5347627,273,-1013,35
2457.086,1.833469,-13.7906,3.936068,1.838747,0.02769688,0.5667207,-0.5741775,243,-1069,86
2457.09,1.837375,-13.7092,4.563348,1.766921,-0.1416802,0.5677859,-0.644485,262,-1063,84
2457.094,1.841281,-13.60864,5.267244,2.049437,-0.278034,0.5944176,-0.7744472,235,-1019,62
2457.098,1.845188,-13.79539,5.798756,2.39899,-0.3920173,0.6157228,-0.9086706,237,-1027,34
2457.102,1.849094,-14.06833,5.985504,2.657564,-0.5368933,0.6061355,-1.010936,247,-1024,41
2457.105,1.853,-13.85764,5.784391,2.628833,-0.5954828,0.5645902,-1.038633,291,-1061,93
2457.109,1.856906,-13.35007,5.588067,2.580949,-0.6199839,0.5028048,-1.042894,194,-1048,91
2457.113,1.860813,-12.5935,4.941632,2.60968,-0.628506,0.4378237,-1.036502,216,-1019,1
2457.117,1.864719,-11.35809,3.845088,2.652775,-0.6540724,0.3451457,-1.019458,256,-1055,49
2457.121,1.868625,-10.39084,3.126827,2.75812,-0.6743124,0.2748382,-0.9779128,295,-1063,87
2457.125,1.872531,-9.648633,2.552219,3.514688,-0.6860303,0.2151834,-0.9161274,241,-1074,52
2457.129,1.876438,-8.983045,1.73819,5.166687,-0.6966829,0.1768339,-0.8511463,218,-1017,74
2457.133,1.880344,-8.57603,0.6129156,6.885724,-0.6988135,0.1672465,-0.8053399,272,-1017,25
2457.137,1.88425,-8.69574,-1.666364,7.484274,-0.6391587,0.2162487,-0.7861652,276,-1046,34
2457.141,1.888156,-8.810662,-3.05979,6.92882,-0.5166533,0.3067962,-0.7723167,304,-1086,67
2457.145,1.892063,-8.858546,-3.691859,6.607997,-0.3994742,0.4293016,-0.7446198,223,-1081,96
2457.148,1.895969,-8.863335,-3.821146,6.378153,-0.3589941,0.5507417,-0.7137272,208,-1061,46
2457.152,1.899875,-8.920795,-4.012682,6.641515,-0.3547331,0.6593987,-0.7052051,301,-1031,-6
2457.156,1.903781,-8.939949,-4.299986,6.622362,-0.3238404,0.6881608,-0.7147924,247,-1071,33
2457.16,1.907688,-9.035717,-4.515464,6.526594,-0.2727077,0.6711166,-0.737163,268,-1058,75
2457.164,1.911594,-9.050082,-4.620809,6.272808,-0.2183792,0.6253102,-0.7701862,265,-1047,90
2457.168,1.9155,-8.992621,-4.88896,5.966351,-0.1225054,0.5400891,-0.8202536,225,-1001,26
2457.172,1.919406,-9.02614,-4.869806,5.712565,-0.05113269,0.459129,-0.8873653,321,-1108,18
2457.176,1.923313,-9.02614,-4.898537,5.530606,0.01704423,0.3792341,-0.9608685,288,-1042,95
2457.18,1.927219,-9.074024,-4.908113,5.295974,0.06711166,0.3067962,-1.032241,248,-1072,52
2457.184,1.931125,-9.107543,-4.754884,5.209783,0.1171791,0.2130529,-1.114267,257,-1019,58
2457.188,1.935031,-9.165004,-4.539406,5.114015,0.1416802,0.144876,-1.16966,247,-1010,66
2457.191,1.938938,-9.414001,-4.10845,4.893748,0.1576591,0.07882957,-1.229315,297,-1087,33
2457.195,1.942844,-9.730036,-3.581726,4.486734,0.1747034,0.02237055,-1.269795,312,-1110,60
2457.199,1.94675,-9.959879,-2.691083,4.098873,0.1778992,-0.05539375,-1.280448,282,-1041,88
2457.203,1.950656,-10.68293,-1.92015,3.442862,0.1736381,-0.1097222,-1.245294,264,-1059,48
2457.207,1.954563,-11.00854,-1.106121,3.476381,0.1608549,-0.1214401,-1.18777,306,-1013,38
2457.211,1.958469,-11.3964,-0.5075708,3.289633,0.1363538,-0.1203749,-1.117462,329,-1048,58
2457.215,1.962375,-12.08593,0.2154781,3.150769,0.1033307,-0.1203749,-1.012001,240,-1057,100
2457.219,1.966281,-12.81377,0.8140286,3.016694,0.09161274,-0.128897,-0.9001484,228,-1040,44
2457.223,1.970188,-13.61822,1.331176,2.925714,0.07137272,-0.149137,-0.7563377,281,-1019,8
2457.227,1.974094,-14.26944,1.929727,2.633622,0.0298274,-0.1949434,-0.5890912,293,-1079,23
2457.23,1.978,-14.85363,2.408567,2.456451,-0.03728426,-0.2492719,-0.4016047,314,-1061,54
2457.234,1.981906,-14.86799,3.007117,2.015918,-0.1555286,-0.3131877,-0.1374191,241,-1023,42
2457.238,1.985813,-14.4514,3.289633,1.68073,-0.2609898,-0.350472,0.03728426,233,-1003,28
2457.242,1.989719,-13.64695,3.337517,1.527501,-0.3579289,-0.3760383,0.181095,317,-1005,19
2457.246,1.993625,-12.5935,3.318364,1.570596,-0.4282363,-0.3856257,0.2812298,291,-1095,51
2457.25,1.997531,-9.074024,2.75812,1.82917,-0.5241101,-0.3526025,0.4175837,283,-1039,20
2457.254,2.001438,-9.074024,2.75812,1.82917,-0.5241101,-0.3526025,0.4175837,283,-1113,121
2457.258,2.005344,-8.777143,2.619257,1.886631,-0.5262406,-0.3419499,0.4250405,253,-1044,9
2457.262,2.00925,-7.967903,2.264915,2.001553,-0.5219796,-0.3036004,0.4356932,308,-1078,45
2457.266,2.013156,-7.091625,1.905785,2.154781,-0.5049353,-0.2482066,0.4474111,339,-1059,86
2457.27,2.017063,-6.785168,1.661576,2.193089,-0.4964132,-0.2130529,0.4612595,244,-1095,95
2457.273,2.020969,-6.603208,1.412579,2.173935,-0.4921522,-0.1778992,0.4804343,265,-1044,86
2457.277,2.024875,-6.488286,1.130063,2.082955,-0.4889564,-0.1406149,0.4964132,309,-1042,31
2457.281,2.028781,-6.564901,0.6895301,1.972822,-0.4846953,-0.09693906,0.5145227,274,-1054,66
2457.285,2.032688,-6.540959,0.4644751,1.886631,-0.4761732,-0.06817692,0.5187838,266,-1080,76
2457.289,2.036594,-6.579266,0.3687071,1.685518,-0.4665858,-0.04154531,0.5251754,265,-1024,73
2457.293,2.0405,-6.655881,0.3256114,1.695095,-0.4548679,-0.01597897,0.5326322,257,-1029,20
2457.297,2.044406,-6.655881,0.2777274,1.575385,-0.44315,0.01384844,0.5464807,312,-1033,53
2457.301,2.048313,-6.617573,0.3830723,1.556231,-0.4388889,0.03089267,0.551807,300,-1055,71
2457.305,2.052219,-6.579266,0.3543418,1.575385,-0.4388889,0.05006743,0.5613944,286,-1045,58
2457.309,2.056125,-6.493075,0.4261679,1.546654,-0.4452805,0.06072007,0.5667207,244,-1045,29
2457.312,2.060031,-6.397307,0.4979939,1.532289,-0.4559332,0.07669904,0.5741775,274,-1060,39
2457.316,2.063938,-6.287174,0.4979939,1.594538,-0.46339,0.08735168,0.5784386,282,-1091,85
2457.32,2.067844,-6.200982,0.5123592,1.49877,-0.4697816,0.08735168,0.5805691,284,-1051,60
2457.324,2.07175,-6.167463,0.4884171,1.551443,-0.4783037,0.0809601,0.5848302,258,-1043,76
2457.328,2.075656,-6.119579,0.4836287,1.517924,-0.4889564,0.06711166,0.5848302,251,-1018,38
2457.332,2.079563,-6.047753,0.3256114,1.446098,-0.5134575,0.0479369,0.5795039,305,-1074,27
2457.336,2.083469,-5.93762,0.3160346,1.522712,-0.531567,0.0330232,0.5699165,286,-1041,65
2457.34,2.087375,-5.832275,0.272939,1.446098,-0.5581986,0.02237055,0.5550028,227,-1098,98
2457.344,2.091281,-5.784391,0.3112462,1.489193,-0.5858954,0.01065264,0.5390238,254,-1032,47
2457.348,2.095188,-5.765238,0.2920926,1.479617,-0.6274408,-0.001065264,0.5123922,286,-1008,38
2457.352,2.099094,-5.784391,0.3256114,1.479617,-0.6519418,-0.01065264,0.4942827,310,-1071,10
2457.355,2.103,-5.765238,0.4070143,1.474828,-0.6732471,-0.0181095,0.4740427,295,-1049,83
2457.359,2.106906,-5.731719,0.3687071,1.465251,-0.6913566,-0.02130529,0.4516721,261,-1001,94
2457.363,2.110813,-5.750872,0.3687071,1.417367,-0.7105314,-0.01384844,0.4133226,254,-1025,17
2457.367,2.114719,-5.793968,0.3878607,1.388637,-0.7190535,0,0.3813647,327,-1022,27
2457.371,2.118625,-5.808333,0.3639187,1.388637,-0.7222493,0.02130529,0.3462109,312,-1113,85
2457.375,2.122531,-5.889736,0.2346318,1.426944,-0.7201188,0.04367584,0.309992,272,-1062,66
2457.379,2.126438,-5.966351,0.1723825,1.460463,-0.7062703,0.07456851,0.2588593,238,-1039,92
2457.383,2.130344,-6.05733,0.1244985,1.35033,-0.6913566,0.09480853,0.2141182,326,-993,63
2457.387,2.13425,-6.200982,-0.07182605,1.359907,-0.6743124,0.1118528,0.169377,277,-1036,45
2457.391,2.138156,-6.335058,-0.1244985,1.335965,-0.6551376,0.1171791,0.1214401,255,-1060,83
2457.395,2.142063,-6.402095,-0.248997,1.340753,-0.6402239,0.1075917,0.04900216,239,-1021,84
2457.398,2.145969,-6.449979,-0.3591302,1.355118,-0.6306365,0.08415589,-0.0149137,256,-1070,58
2457.402,2.149875,-6.593631,-0.4932055,1.355118,-0.6157228,0.06072007,-0.06391587,288,-1026,43
2457.406,2.153781,-6.679823,-0.5171476,1.235408,-0.6018744,0.04154531,-0.1022654,326,-1061,65
2457.41,2.157688,-6.952762,-0.5889736,1.130063,-0.5858954,0.02876214,-0.1512675,260,-1060,74
2457.414,2.161594,-7.177817,-0.5554548,0.9959879,-0.5699165,0.02769688,-0.1789644,243,-1002,96
2457.418,2.1655,-7.484274,-0.5889736,0.8571242,-0.556068,0.01597897,-0.2077266,255,-1033,43
2457.422,2.169406,-7.819463,-0.6129156,0.8236054,-0.5379585,0,-0.2247708,259,-1053,25
2457.426,2.173313,-8.288726,-0.6655881,0.7374141,-0.5273059,-0.02450108,-0.2311624,310,-1031,70
2457.43,2.177219,-8.686164,-0.7086837,0.617704,-0.5230448,-0.0628506,-0.2407498,231,-1017,95
2457.434,2.181125,-9.02614,-0.7613561,0.56982,-0.5241101,-0.09161274,-0.241815,266,-1030,32
2457.438,2.185031,-9.351752,-0.866701,0.4740519,-0.5326322,-0.1203749,-0.2428803,291,-1003,32
2457.441,2.188938,-9.629479,-0.8236054,0.3495534,-0.5347627,-0.1565939,-0.241815,325,-1066,86
2457.445,2.192844,-9.907206,-0.8475474,0.1053449,-0.5422196,-0.1992044,-0.2300971,273,-1032,89
2457.449,2.19675,-10.00776,-0.7757213,-0.08140286,-0.5464807,-0.2332929,-0.2237055,248,-1005,68
2457.453,2.200656,-10.00776,-0.7757213,-0.272939,-0.5539375,-0.2514024,-0.2141182,264,-1032,8
2457.457,2.204563,-9.988609,-0.7565677,-0.56982,-0.5496764,-0.2620551,-0.2087918,278,-1033,41
2457.461,2.208469,-9.701305,-0.617704,-0.818817,-0.5368933,-0.2588593,-0.2034655,253,-1049,95
2457.465,2.212375,-9.533711,-0.593762,-0.9576807,-0.5262406,-0.2482066,-0.1981392,252,-1088,86
2457.469,2.216281,-9.184158,-0.5171476,-1.067814,-0.5145227,-0.2343582,-0.1896171,254,-1023,35
2457.473,2.220188,-8.911219,-0.4932055,-1.072602,-0.5049353,-0.2290319,-0.1842907,278,-1033,47
2457.477,2.224094,-8.5473,-0.4213795,-1.000776,-0.495348,-0.2226403,-0.1757686,349,-1053,13
2457.48,2.228,-8.346187,-0.3734955,-0.890643,-0.4878911,-0.2151834,-0.1629855,270,-1062,93
2457.484,2.231906,-8.231265,-0.2873042,-0.7565677,-0.4814995,-0.2045308,-0.1523328,278,-997,72
2457.488,2.235813,-8.106767,-0.09097966,-0.5315128,-0.4708469,-0.2034655,-0.1363538,284,-1000,32
2457.492,2.239719,-8.121132,0.08619126,-0.225055,-0.4665858,-0.2034655,-0.1118528,304,-1052,12
2457.496,2.243625,-8.164228,0.2106897,-0.08619126,-0.4601942,-0.2119876,-0.09267801,276,-1054,52
2457.5,2.247531,-8.245631,0.344765,0.02873042,-0.4474111,-0.2258361,-0.08309063,264,-1053,81
2457.504,2.251438,-8.489839,0.5027823,0.1101333,-0.4335626,-0.2439456,-0.07030745,275,-1020,46
2457.508,2.255344,-8.714894,0.593762,0.2011129,-0.4143879,-0.2599245,-0.05858954,297,-1043,58
2457.512,2.25925,-8.973468,0.6560113,0.3303998,-0.4111921,-0.2663161,-0.05539375,312,-1090,23
2457.516,2.263156,-9.241618,0.6751649,0.4309563,-0.4186489,-0.2503371,-0.05219796,304,-1066,82
2457.52,2.267063,-9.576807,0.5554548,0.521936,-0.4506069,-0.2098571,-0.06178534,268,-1018,69
2457.523,2.270969,-9.964667,0.2681506,0.7134721,-0.5038701,-0.1374191,-0.06711166,283,-1034,25
2457.527,2.274875,-10.31901,-0.2681506,0.5363012,-0.6008091,0.02237055,-0.06817692,314,-1013,55
2457.531,2.278781,-10.75475,-0.7422025,0.06703765,-0.6828345,0.1683118,-0.07243798,303,-1022,69
2457.535,2.282688,-11.20008,-1.039084,-0.4213795,-0.7563377,0.3355583,-0.06498113,234,-1078,72
2457.539,2.286594,-11.6023,-1.441309,-0.5123592,-0.8181231,0.4751079,-0.04900216,221,-1005,42
2457.543,2.2905,-12.03326,-1.824382,0.1867477,-0.8745821,0.5784386,-0.01704423,306,-1003,0
2457.547,2.294406,-12.29662,-2.059013,0.9337386,-0.8884305,0.5837649,0.002130529,303,-1055,55
2457.551,2.298313,-12.58392,-2.173935,1.527501,-0.8756474,0.5528722,0.0298274,296,-1042,109
2457.555,2.302219,-12.78983,-2.025495,1.824382,-0.8287757,0.5017395,0.05539375,238,-1010,101
2457.559,2.306125,-13.01967,-1.728614,1.335965,-0.7318367,0.4282363,0.1054612,276,-999,20
2457.562,2.310031,-13.22557,-1.359907,0.4165911,-0.6530071,0.3781689,0.144876,320,-1064,56
2457.566,2.313938,-13.46499,-1.144428,-0.4261679,-0.5699165,0.3238404,0.1928129,289,-1063,49
2457.57,2.317844,-13.73314,-1.13964,-0.7134721,-0.4612595,0.2386192,0.2439456,289,-1094,68
2457.574,2.32175,-14.05875,-1.201889,-0.9289502,-0.2950782,0.08841695,0.3036004,263,-1011,66
2457.578,2.325656,-14.17367,-1.163582,-1.101333,-0.1896171,-0.03834952,0.3323625,287,-1028,62
2457.582,2.329563,-14.25987,-1.302446,-1.235408,-0.1107875,-0.169377,0.3472762,319,-1038,33
2457.586,2.333469,-14.2886,-1.508347,-1.455675,-0.04367584,-0.3078614,0.3440804,283,-1078,49
2457.59,2.337375,-14.07791,-1.723825,-2.006341,0.03834952,-0.5060006,0.3355583,262,-983,59
2457.594,2.341281,-13.69962,-1.766921,-2.42772,0.07137272,-0.6466155,0.3217099,243,-1039,38
2457.598,2.345188,-13.25909,-1.795651,-2.916138,0.0660464,-0.7595335,0.3025351,291,-1035,32
2457.602,2.349094,-12.85207,-1.690306,-3.351882,0.02237055,-0.8277105,0.2759035,280,-1078,74
2457.605,2.353,-12.20085,-1.436521,-3.576937,-0.1033307,-0.8468852,0.237554,266,-1097,112
2457.609,2.356906,-11.66934,-1.144428,-3.021482,-0.2279666,-0.7989483,0.2002697,271,-1028,64
2457.613,2.360813,-11.07079,-1.11091,-0.6751649,-0.3419499,-0.6838998,0.1768339,252,-1003,50
2457.617,2.364719,-10.7356,-1.235408,2.418144,-0.3994742,-0.4878911,0.1832255,266,-1071,42
2457.621,2.368625,-10.27591,-1.010353,8.418013,-0.4197142,-0.2205097,0.221575,285,-1063,86
2457.625,2.372531,-10.58237,-0.5123592,9.931148,-0.4037352,0.2460761,0.3195793,263,-1068,82
2457.629,2.376438,-11.71722,0.5363012,5.310339,-0.4303668,0.5826996,0.4037352,292,-1012,89
2457.633,2.380344,-12.74673,1.053449,2.178724,-0.495348,0.7968178,0.4921522,316,-1050,31
2457.637,2.38425,-12.95263,0.1867477,2.327164,-0.4314321,0.8074704,0.6135923,271,-1085,44
2457.641,2.388156,-12.55519,-0.7709329,2.264915,-0.2897519,0.6061355,0.8064052,221,-1081,73
2457.645,2.392063,-12.2631,-1.355118,1.565808,-0.2663161,0.4601942,0.9161274,306,-989,43
2457.648,2.395969,-12.39718,-1.733402,0.8858546,-0.2492719,0.4143879,1.041829,236,-1033,39
2457.652,2.399875,-12.95263,-2.27928,1.403002,-0.1640507,0.4143879,1.164334,325,-1100,-4
2457.656,2.403781,-13.88637,-3.05979,2.595315,0.1107875,0.3163835,1.260208,274,-1070,17
2457.66,2.407688,-14.50886,-3.050213,2.322376,0.2961435,0.1885518,1.335842,244,-1066,68
2457.664,2.411594,-14.89672,-2.748544,2.207454,0.3813647,0.1150486,1.385909,262,-1023,48
2457.668,2.4155,-14.89672,-2.87783,2.72939,0.3611246,0.1001349,1.459412,331,-1031,46
2457.672,2.419406,-14.30775,-3.557784,3.773262,0.3472762,0.1022654,1.486044,299,-1051,42
2457.676,2.423313,-13.61822,-3.667917,4.43885,0.4516721,0.07882957,1.412541,294,-1044,87
2457.68,2.427219,-12.77067,-3.739743,4.659116,0.6189186,0.02663161,1.325189,270,-1023,89
2457.684,2.431125,-11.92312,-3.270479,4.429273,0.7787083,-0.01704423,1.218663,265,-1010,13
2457.688,2.435031,-11.30542,-1.900996,4.702212,0.870321,-0.03728426,1.141963,302,-1066,38
2457.691,2.438938,-11.21444,-1.058237,6.023811,0.8873653,-0.08202536,1.131311,283,-1057,80
2457.695,2.442844,-11.33415,-0.1532289,6.852205,0.8607337,-0.1864213,1.132376,273,-1047,101
2457.699,2.44675,-11.27669,0.842759,6.770802,0.7563377,-0.2993393,1.135572,257,-1050,-2
2457.703,2.450656,-10.6542,2.015918,6.009446,0.5699165,-0.3526025,1.136637,344,-1034,52
2457.707,2.454563,-9.964667,2.671929,5.621585,0.4889564,-0.3067962,1.135572,318,-1069,27
2457.711,2.458469,-9.442731,3.026271,5.616797,0.4878911,-0.2045308,1.137702,274,-1044,100
2457.715,2.462375,-9.418789,3.184288,6.042965,0.4974785,-0.09161274,1.12918,242,-1015,85
2457.719,2.466281,-9.840169,3.284845,6.708553,0.4665858,0.002130529,1.131311,271,-1032,34
2457.723,2.470188,-10.1993,3.667917,6.71813,0.3174488,0.07030745,1.140898,293,-957,47
2457.727,2.474094,-10.40999,3.983952,6.584055,0.1672465,0.08415589,1.155812,297,-1048,91
2457.73,2.478,-10.39084,4.295198,6.277597,0.02876214,0.0809601,1.159008,270,-1072,64
2457.734,2.481906,-10.51533,4.419696,5.750872,-0.0628506,0.07563377,1.14942,243,-1003,86
2457.738,2.485813,-10.66377,4.357447,5.166687,-0.1395496,0.07669904,1.118528,278,-1037,26
2457.742,2.489719,-11.06121,4.194641,4.927267,-0.1778992,0.07137272,1.090831,303,-1084,23
2457.746,2.493625,-11.63103,3.98874,4.975151,-0.2151834,0.04687164,1.050351,320,-1074,109
2457.75,2.497531,-12.22479,3.993528,4.912902,-0.2727077,0.003195793,0.9938917,232,-1035,114
2457.754,2.501438,-12.94305,3.806781,4.620809,-0.3802994,-0.07350325,0.8735168,251,-1014,55
2457.758,2.505344,-13.47457,3.39019,4.314351,-0.4356932,-0.1342233,0.7542072,269,-1000,55
2457.762,2.50925,-13.87679,2.753332,3.950433,-0.4740427,-0.1917476,0.6050702,303,-1039,67
2457.766,2.513156,-14.33169,1.982399,3.620033,-0.4910869,-0.241815,0.4484763,251,-1053,79
2457.77,2.517063,-14.58069,0.9433155,3.217807,-0.4889564,-0.3078614,0.2503371,237,-1023,63
2457.773,2.520969,-14.61421,0.1053449,2.801216,-0.4761732,-0.3557983,0.1097222,211,-1040,21
2457.777,2.524875,-14.31254,-0.7230489,2.418144,-0.4644553,-0.4122573,-0.02450108,307,-1062,41
2457.781,2.528781,-13.9965,-1.541866,2.102109,-0.4378237,-0.4740427,-0.1523328,278,-1079,98
2457.785,2.532688,-13.11065,-2.681506,1.613692,-0.3685815,-0.5486112,-0.3036004,260,-1056,75
2457.789,2.536594,-12.3876,-3.471592,1.302446,-0.2908172,-0.5848302,-0.3973436,248,-1013,74
2457.793,2.5405,-11.51132,-4.170699,1.04866,-0.1960087,-0.5976133,-0.4825648,292,-967,11
2457.797,2.544406,-10.69729,-4.788403,0.9624691,-0.08735168,-0.5944176,-0.556068,267,-1088,80
2457.801,2.548313,-9.658209,-5.209783,0.9337386,0.05752428,-0.5858954,-0.6263755,243,-1073,100
2457.805,2.552219,-8.983045,-5.252878,1.000776,0.1544633,-0.5816344,-0.6530071,245,-1032,56
2457.809,2.556125,-8.322245,-5.147534,1.058237,0.2322276,-0.5763081,-0.664725,261,-1011,45
2457.812,2.560031,-7.747637,-4.975151,1.115698,0.3046656,-0.5688512,-0.6700513,278,-1034,49
2457.816,2.563938,-7.038953,-4.702212,1.225831,0.3728426,-0.5613944,-0.6636597,269,-1072,66
2457.82,2.567844,-6.71813,-4.252102,1.268927,0.4484763,-0.5475459,-0.660464,237,-1007,64
2457.824,2.57175,-6.421249,-3.926491,1.316811,0.4985438,-0.5273059,-0.6551376,215,-992,15
2457.828,2.575656,-6.301539,-3.677494,1.388637,0.5443501,-0.4932174,-0.6530071,289,-987,10
2457.832,2.579563,-6.186617,-3.32794,1.479617,0.5858954,-0.4516721,-0.6583334,305,-1057,69
2457.836,2.583469,-6.133945,-2.992752,1.527501,0.6317018,-0.4005394,-0.6700513,309,-1031,111
2457.84,2.587375,-6.090849,-2.748544,1.575385,0.6615292,-0.3632552,-0.6764429,259,-1014,84
2457.844,2.591281,-6.090849,-2.643199,1.647211,0.6860303,-0.3366236,-0.6870956,232,-976,22
2457.848,2.595188,-5.904101,-2.446874,1.666364,0.7073356,-0.3089267,-0.6956177,285,-998,69
2457.852,2.599094,-5.827487,-2.312799,1.752556,0.7318367,-0.2769688,-0.7041398,268,-1042,68
2457.855,2.603,-5.664681,-2.1883,1.757344,0.7435546,-0.2524677,-0.7073356,244,-1070,47
2457.859,2.606906,-5.616797,-2.030283,1.838747,0.7616641,-0.2290319,-0.7094661,288,-982,70
2457.863,2.610813,-5.425261,-1.92015,1.872266,0.7701862,-0.2034655,-0.7126619,284,-996,49
2457.867,2.614719,-5.24809,-1.73819,1.872266,0.7819041,-0.1725728,-0.7073356,291,-1068,30
2457.871,2.618625,-5.12838,-1.575385,1.848324,0.7872304,-0.1480718,-0.6988135,342,-1041,68
2457.875,2.622531,-5.114015,-1.446098,1.848324,0.7893609,-0.1278317,-0.6892261,227,-1030,63
2457.879,2.626438,-5.070919,-1.264138,1.8579,0.7850999,-0.1107875,-0.6817692,245,-972,25
2457.883,2.630344,-5.0374,-1.067814,1.905785,0.7808388,-0.09267801,-0.6732471,282,-1013,14
2457.887,2.63425,-5.066131,-0.9385271,1.862689,0.7712515,-0.08415589,-0.6615292,279,-1079,84
2457.891,2.638156,-5.032612,-0.8092402,1.742979,0.7669904,-0.0809601,-0.6508766,259,-1049,73
2457.895,2.642063,-4.941632,-0.7134721,1.613692,0.7627293,-0.06391587,-0.6348976,236,-1036,46
2457.898,2.645969,-4.850653,-0.5171476,1.493982,0.7542072,-0.01917476,-0.6093313,262,-992,19
2457.902,2.649875,-4.884171,-0.4788403,1.326388,0.7424893,0.0330232,-0.5741775,277,-1041,41
2457.906,2.653781,-4.869806,-0.320823,1.225831,0.7350325,0.09374327,-0.5336975,263,-1069,100
2457.91,2.657688,-4.884171,-0.2394202,1.197101,0.7286409,0.1608549,-0.4964132,272,-1050,69
2457.914,2.661594,-4.912902,-0.07182605,1.154005,0.7243798,0.2237055,-0.4580637,245,-999,45
2457.918,2.6655,-5.018247,0.09576807,1.192312,0.7179882,0.2950782,-0.4048005,285,-1010,63
2457.922,2.669406,-5.00867,0.2777274,1.297657,0.7179882,0.3334278,-0.3579289,294,-1080,91
2457.926,2.673313,-5.080496,0.4357447,1.312023,0.7137272,0.3589941,-0.3089267,273,-1070,93
2457.93,2.677219,-5.056554,0.5363012,1.369483,0.7137272,0.3781689,-0.2588593,240,-1046,72
2457.934,2.681125,-5.109226,0.7709329,1.28808,0.7126619,0.3994742,-0.1885518,244,-1022,73
2457.938,2.685031,-5.228936,0.8236054,1.273715,0.7137272,0.4101268,-0.1342233,265,-1040,30
2457.941,2.688938,-5.319916,1.000776,1.201889,0.7201188,0.4165184,-0.07882957,281,-1068,100
2457.945,2.692844,-5.482722,0.9720459,1.211466,0.716923,0.4207795,-0.03089267,243,-1052,95
2457.949,2.69675,-5.683835,0.9959879,1.297657,0.721184,0.4101268,0.02663161,242,-995,31
2457.953,2.700656,-5.990293,1.063026,1.312023,0.7222493,0.3930826,0.07030745,262,-979,36
2457.957,2.704563,-6.210559,1.16837,1.312023,0.7222493,0.3728426,0.108657,236,-1066,33
2457.961,2.708469,-6.569689,1.163582,1.278504,0.7158577,0.3526025,0.1438107,288,-1050,92
2457.965,2.712375,-6.943185,1.149217,1.23062,0.7052051,0.3217099,0.1800297,224,-1023,118
2457.969,2.716281,-7.283161,1.163582,1.197101,0.6945524,0.3014698,0.2066613,246,-1014,-7
2457.973,2.720188,-7.709329,1.192312,1.115698,0.6753777,0.278034,0.2269013,296,-1070,9
2457.977,2.724094,-7.996634,1.130063,1.158794,0.6572682,0.2460761,0.241815,264,-1052,99
2457.98,2.728,-8.532935,1.154005,1.034295,0.6231797,0.1992044,0.2556635,239,-1056,78
2457.984,2.731906,-8.863335,1.115698,1.000776,0.5912218,0.1629855,0.2641856,254,-999,5
2457.988,2.735813,-9.193734,1.067814,0.9816227,0.5603291,0.1182444,0.2652508,273,-1019,27
2457.992,2.739719,-9.576807,1.01993,0.8858546,0.5273059,0.07030745,0.2631203,296,-1066,25
2457.996,2.743625,-10.06044,0.9289502,0.8714894,0.4921522,0.003195793,0.2599245,268,-1065,77
2458,2.747531,-10.25676,0.842759,0.8092402,0.46339,-0.05752428,0.2588593,255,-1011,97
2458.004,2.751438,-10.55364,0.8092402,0.6895301,0.4324974,-0.108657,0.2556635,255,-990,63
2458.008,2.755344,-10.79306,0.7661445,0.4932055,0.4016047,-0.1587244,0.2524677,262,-993,-14
2458.012,2.75925,-11.07558,0.6799533,0.3303998,0.3685815,-0.2024002,0.2482066,284,-1042,80
2458.016,2.763156,-11.17613,0.5075708,0.2442086,0.3281014,-0.2471413,0.2460761,248,-1073,112
2458.02,2.767063,-11.23838,0.3782839,0.1197101,0.298274,-0.2716424,0.2364887,248,-1000,124
2458.023,2.770969,-11.315,0.1819593,0.1340753,0.2684466,-0.2844256,0.2258361,278,-1083,41
2458.027,2.774875,-11.26232,0.05267244,0.1915361,0.2439456,-0.2929477,0.2141182,284,-1014,9
2458.031,2.778781,-11.1905,-0.1388637,0.1005565,0.2151834,-0.3025351,0.1970739,296,-1038,86
2458.035,2.782688,-11.13304,-0.3543418,0.1053449,0.201335,-0.3025351,0.1821602,220,-994,95
2458.039,2.786594,-10.95108,-0.5027823,0.07661445,0.1960087,-0.2972088,0.1672465,223,-1013,25
2458.043,2.7905,-10.89841,-0.5889736,0.1532289,0.201335,-0.2886867,0.1523328,280,-1022,34
2458.047,2.794406,-10.60152,-0.7182605,0.1867477,0.2173139,-0.2652508,0.1406149,290,-1030,84
2458.051,2.798313,-10.45308,-0.7661445,0.3160346,0.2311624,-0.2460761,0.1342233,212,-1053,93
2458.055,2.802219,-10.36689,-0.8283938,0.4213795,0.2567287,-0.2311624,0.1320928,233,-1019,81
2458.059,2.806125,-10.17057,-0.8044518,0.5075708,0.278034,-0.2151834,0.1299623,253,-1010,33
2458.062,2.810031,-10.08917,-0.7517793,0.5650316,0.298274,-0.1938781,0.1395496,276,-1064,30
2458.066,2.813938,-10.07001,-0.7230489,0.6991069,0.3238404,-0.1821602,0.1459412,264,-1068,90
2458.07,2.817844,-9.979033,-0.6943185,0.7661445,0.3472762,-0.1629855,0.1565939,247,-1044,62
2458.074,2.82175,-10.00297,-0.6655881,0.6655881,0.370712,-0.1384844,0.165116,266,-1024,80
2458.078,2.825656,-9.993398,-0.5267244,0.4692635,0.4079963,-0.09267801,0.1757686,271,-1008,55
2458.082,2.829563,-10.05086,-0.4213795,0.4309563,0.4399542,-0.04474111,0.1885518,302,-1082,45
2458.086,2.833469,-10.09395,-0.1723825,0.320823,0.459129,0.01065264,0.1949434,265,-1053,100
2458.09,2.837375,-10.25197,0.07182605,0.1963245,0.4729774,0.0660464,0.1949434,268,-987,104
2458.094,2.841281,-10.39084,0.3782839,0.09576807,0.4772385,0.1299623,0.1874865,268,-1030,11
2458.098,2.845188,-10.48181,0.6512229,0.1101333,0.4719121,0.1619202,0.1821602,298,-1058,34
2458.102,2.849094,-10.57758,0.9911995,0.2106897,0.4420847,0.1747034,0.1672465,281,-1077,71
2458.105,2.853,-10.70687,1.249773,0.3016694,0.3824299,0.1704423,0.1416802,248,-1057,104
2458.109,2.856906,-10.80264,1.398214,0.3591302,0.3227751,0.1544633,0.112918,226,-1037,43
2458.113,2.860813,-10.88883,1.628057,0.296881,0.241815,0.1395496,0.07137272,311,-998,17
2458.117,2.864719,-11.03727,1.838747,0.01436521,0.185356,0.1438107,0.03834952,301,-1051,27
2458.121,2.868625,-11.1474,1.905785,-0.2825158,0.128897,0.1619202,0.003195793,264,-1071,94
2458.125,2.872531,-11.42513,2.087744,-0.5650316,0.06924219,0.1896171,-0.03834952,233,-972,82
2458.129,2.876438,-11.89918,2.264915,-0.7757213,-0.0149137,0.2077266,-0.09480853,259,-999,17
2458.133,2.880344,-12.22001,2.355894,-0.7469909,-0.08735168,0.1938781,-0.1427454,299,-1083,13
2458.137,2.88425,-12.5935,2.513912,-0.7613561,-0.1619202,0.1459412,-0.1864213,269,-1012,96
2458.141,2.888156,-12.9239,2.671929,-0.8092402,-0.2279666,0.06498113,-0.2300971,211,-1059,74
2458.145,2.892063,-13.24951,2.858677,-0.9289502,-0.2897519,-0.09267801,-0.2833603,242,-994,56
2458.148,2.895969,-13.39316,2.949656,-1.16837,-0.309992,-0.2269013,-0.314253,288,-973,33
2458.152,2.899875,-13.53682,3.016694,-1.340753,-0.3025351,-0.3621899,-0.3376888,299,-1082,83
2458.156,2.903781,-13.48893,2.920926,-1.637634,-0.257794,-0.4857606,-0.3536678,257,-1041,74
2458.16,2.907688,-13.31655,2.633622,-1.264138,-0.1533981,-0.6093313,-0.366451,219,-1024,82
2458.164,2.911594,-12.84729,2.494758,-0.3687071,-0.06711166,-0.6412892,-0.3675162,236,-982,57
2458.168,2.9155,-12.22479,1.929727,1.211466,-0.01065264,-0.5965481,-0.3557983,254,-1017,25
2458.172,2.919406,-11.57357,1.240196,3.174711,0.02237055,-0.4708469,-0.3334278,280,-1053,61
2458.176,2.923313,-10.83616,-0.1484405,5.961562,0.01278317,-0.1949434,-0.2961435,223,-1053,103
2458.18,2.927219,-11.01812,-1.086968,6.258443,-0.05965481,0.06072007,-0.294013,233,-989,63
2458.184,2.931125,-11.48738,-1.278504,4.730942,-0.1683118,0.3185141,-0.3195793,273,-967,36
2458.188,2.935031,-11.84172,-1.312023,3.332729,-0.2226403,0.5209143,-0.3408846,274,-1040,18
2458.191,2.938938,-11.58315,-0.5602432,2.485181,-0.2556635,0.700944,-0.3802994,276,-1085,90
2458.195,2.942844,-11.2719,0.3399766,2.121263,-0.2727077,0.7968178,-0.42291,249,-1001,67
2458.199,2.94675,-11.23838,1.268927,1.61848,-0.2886867,0.8831042,-0.4878911,245,-1005,44
2458.203,2.950656,-11.77468,1.982399,1.642422,-0.3089267,0.9853696,-0.5816344,260,-1004,54
2458.207,2.954563,-12.89996,2.873042,2.595315,-0.3728426,1.055677,-0.7179882,269,-1059,74
2458.211,2.958469,-13.98214,3.77805,3.203442,-0.5571333,1.006675,-0.9054748,252,-1079,70
2458.215,2.962375,-14.83447,4.204218,3.155558,-0.6785734,0.8468852,-1.056742,226,-1018,88
2458.219,2.966281,-15.06432,4.376601,2.590526,-0.7190535,0.648746,-1.194161,238,-1009,57
2458.223,2.970188,-14.48971,4.232949,2.1883,-0.6817692,0.4708469,-1.282578,296,-1058,37
2458.227,2.974094,-13.08192,3.62961,2.576161,-0.6306365,0.3078614,-1.308145,292,-1030,75
2458.23,2.978,-11.94707,2.96881,3.65834,-0.6317018,0.2471413,-1.283644,268,-1077,46
2458.234,2.981906,-10.97502,2.42772,5.109226,-0.6796387,0.2279666,-1.23038,255,-1011,37
2458.238,2.985813,-10.17057,1.73819,6.066907,-0.7488809,0.2492719,-1.165399,290,-987,34
2458.242,2.989719,-9.361328,0.2920926,6.196194,-0.8042746,0.3291667,-1.082309,284,-1070,94
2458.246,2.993625,-8.872911,-0.7996634,5.712565,-0.7659251,0.4165184,-1.026915,251,-1048,74
2458.25,2.997531,-8.341399,-1.656788,5.291186,-0.6892261,0.5273059,-0.9672601,247,-1000,100
2458.254,3.001438,-7.939173,-2.236184,4.903325,-0.6061355,0.6391587,-0.9076053,258,-1040,11
2458.258,3.005344,-7.551312,-3.150769,5.070919,-0.5134575,0.7808388,-0.8586031,315,-1032,46
2458.262,3.00925,-7.340622,-4.027047,5.080496,-0.4495416,0.8639295,-0.8404936,278,-1066,70
2458.266,3.013156,-7.268796,-4.778827,4.845864,-0.3877563,0.9246495,-0.829841,267,-1092,54
2458.27,3.017063,-7.307103,-5.21936,4.687847,-0.3291667,0.9619338,-0.813862,238,-1024,61
2458.273,3.020969,-7.426814,-5.343858,4.458003,-0.2514024,0.9502159,-0.7872304,302,-1010,29
2458.277,3.024875,-7.642292,-5.295974,4.185065,-0.1928129,0.8937569,-0.7829694,313,-1032,50
2458.281,3.028781,-7.934384,-5.272032,4.165911,-0.1054612,0.8053399,-0.7850999,251,-1033,85
2458.285,3.032688,-8.30788,-5.473145,4.209007,-0.01917476,0.6913566,-0.8074704,285,-1007,85
2458.289,3.036594,-8.892065,-5.530606,4.362235,0.0958738,0.5166533,-0.8575379,215,-984,24
2458.293,3.0405,-9.548076,-5.425261,4.481946,0.169377,0.3685815,-0.8990832,298,-1050,49
2458.297,3.044406,-10.4052,-5.492299,4.122815,0.2482066,0.2332929,-0.9267801,290,-1030,90
2458.301,3.048313,-11.3533,-5.224148,3.89776,0.3227751,0.1427454,-0.942759,278,-1045,105
2458.305,3.052219,-12.78504,-4.946421,3.730166,0.3845605,0.06391587,-0.9480853,300,-1033,44
2458.309,3.056125,-13.9582,-4.156334,3.586514,0.4197142,-0.03941478,-0.9395632,295,-1026,40
2458.312,3.060031,-15.08826,-3.323152,3.428497,0.4058658,-0.1235707,-0.9129316,316,-1039,33
2458.316,3.063938,-16.33324,-2.561796,3.519476,0.3802994,-0.2162487,-0.8735168,309,-1071,84
2458.32,3.067844,-17.26698,-1.843535,3.356671,0.3643204,-0.3089267,-0.8106662,304,-997,47
2458.324,3.07175,-18.4162,-0.8044518,3.174711,0.3419499,-0.4335626,-0.700944,245,-1027,15
2458.328,3.075656,-19.01475,0.1244985,2.796428,0.3195793,-0.5113269,-0.5901565,309,-996,16
2458.332,3.079563,-19.11052,0.9768343,2.413355,0.2876214,-0.5752428,-0.4655206,275,-1039,79
2458.336,3.083469,-18.66041,1.915361,1.982399,0.2492719,-0.628506,-0.3312972,308,-1029,50
2458.34,3.087375,-17.21431,2.949656,1.58975,0.1725728,-0.6753777,-0.1587244,250,-1005,86
2458.344,3.091281,-15.68202,3.41892,1.407791,0.1054612,-0.6977482,-0.0479369,297,-1025,52
2458.348,3.095188,-13.9151,3.830723,1.254562,0.03621899,-0.7147924,0.04261058,312,-1053,49
2458.352,3.099094,-12.19606,3.983952,1.278504,-0.02130529,-0.716923,0.1118528,293,-1046,102
2458.355,3.103,-10.23761,4.046201,1.35033,-0.0809601,-0.7020093,0.1768339,215,-1050,67
2458.359,3.106906,-9.030929,3.983952,1.407791,-0.1139833,-0.6785734,0.2162487,269,-1004,90
2458.363,3.110813,-8.159439,3.849876,1.393425,-0.1480718,-0.6434197,0.2503371,307,-1012,24
2458.367,3.114719,-7.489063,3.56736,1.364695,-0.1736381,-0.6135923,0.2705772,297,-1053,79
2458.371,3.118625,-7.029376,3.380613,1.312023,-0.2024002,-0.5784386,0.2993393,239,-1063,76
2458.375,3.122531,-6.813898,3.016694,1.23062,-0.2279666,-0.5539375,0.3195793,243,-1013,60
2458.379,3.126438,-6.737283,2.695871,1.249773,-0.2503371,-0.5283712,0.3387541,276,-999,30
2458.383,3.130344,-6.71813,2.422932,1.192312,-0.2822951,-0.5038701,0.3547331,304,-1042,31
2458.387,3.13425,-6.636727,2.020706,1.120486,-0.3206446,-0.4495416,0.3802994,301,-1070,84
2458.391,3.138156,-6.622362,1.733402,1.115698,-0.3515373,-0.3952131,0.40267,227,-1077,75
2458.395,3.142063,-6.588843,1.441309,1.082179,-0.366451,-0.334493,0.4282363,247,-1010,33
2458.398,3.145969,-6.584055,1.225831,1.072602,-0.3834952,-0.2705772,0.4527374,330,-1003,33
2458.402,3.149875,-6.540959,1.144428,1.063026,-0.406931,-0.2045308,0.4729774,262,-1061,45
2458.406,3.153781,-6.483498,1.034295,1.058237,-0.427171,-0.1257012,0.495348,252,-1060,57
2458.41,3.157688,-6.483498,0.866701,1.077391,-0.4356932,-0.08309063,0.5113269,258,-1016,66
2458.414,3.161594,-6.373365,0.8619126,1.144428,-0.4420847,-0.04261058,0.5209143,233,-1007,8
2458.418,3.1655,-6.253655,0.794875,1.206678,-0.4442153,-0.01171791,0.5230448,295,-1037,52
2458.422,3.169406,-6.14831,0.6799533,1.211466,-0.4463458,0.01704423,0.5294364,333,-1051,60
2458.426,3.173313,-5.995081,0.593762,1.283292,-0.4495416,0.03089267,0.5262406,257,-1048,48
2458.43,3.177219,-5.961562,0.5267244,1.460463,-0.4495416,0.03834952,0.5219796,280,-997,44
2458.434,3.181125,-5.841852,0.3782839,1.532289,-0.4580637,0.04154531,0.515588,304,-992,43
2458.438,3.185031,-5.717354,0.2442086,1.561019,-0.4676511,0.02769688,0.499609,318,-1036,39
2458.441,3.188938,-5.554548,0.1532289,1.537077,-0.4846953,0.0181095,0.4825648,307,-1075,121
2458.445,3.192844,-5.439626,0.03351882,1.546654,-0.499609,0.004261058,0.4729774,257,-1018,88
2458.449,3.19675,-5.33907,-0.009576807,1.551443,-0.5177185,-0.007456851,0.4559332,260,-1025,53
2458.453,3.200656,-5.291186,-0.009576807,1.489193,-0.5475459,-0.01597897,0.4399542,353,-1043,16
2458.457,3.204563,-5.262455,0.004788403,1.49877,-0.5688512,-0.01171791,0.4250405,288,-1045,111
2458.461,3.208469,-5.147534,0.009576807,1.503559,-0.5901565,-0.001065264,0.4122573,246,-1057,54
2458.465,3.212375,-5.262455,0.06703765,1.493982,-0.6008091,0.01384844,0.3994742,276,-1015,43
2458.469,3.216281,-5.286397,0.2106897,1.484405,-0.5997439,0.03515373,0.3813647,307,-1013,12
2458.473,3.220188,-5.27682,0.320823,1.436521,-0.592287,0.05006743,0.3653857,351,-1072,53
2458.477,3.224094,-5.396531,0.4261679,1.446098,-0.5752428,0.06711166,0.3472762,306,-1036,91
2458.48,3.228,-5.506664,0.521936,1.446098,-0.5550028,0.07989483,0.3238404,243,-1004,82
2458.484,3.231906,-5.66947,0.5363012,1.642422,-0.5368933,0.0958738,0.2897519,290,-986,29
2458.488,3.235813,-5.827487,0.545878,1.742979,-0.5219796,0.09906959,0.2609898,335,-976,75
2458.492,3.239719,-5.865794,0.5315128,1.80044,-0.5102617,0.08948221,0.2247708,286,-1039,112
2458.496,3.243625,-5.918467,0.3926491,1.824382,-0.4942827,0.08202536,0.1864213,234,-1045,93
2458.5,3.247531,-6.052542,0.3351882,1.795651,-0.4740427,0.06391587,0.1470065,277,-984,58
2458.504,3.251438,-6.215348,0.1532289,1.73819,-0.4612595,0.03408846,0.0958738,248,-995,25
2458.508,3.255344,-6.277597,-0.02873042,1.651999,-0.4559332,0.006391587,0.05752428,306,-1046,30
2458.512,3.25925,-6.406884,-0.1580173,1.594538,-0.4527374,-0.02556635,0.02024002,346,-1047,117
2458.516,3.263156,-6.517017,-0.3543418,1.532289,-0.4506069,-0.06178534,-0.0181095,262,-1028,86
2458.52,3.267063,-6.727707,-0.5746084,1.316811,-0.4516721,-0.1118528,-0.06391587,273,-1015,19
2458.523,3.270969,-6.95755,-0.7230489,1.173159,-0.4538026,-0.1470065,-0.1001349,282,-1019,18
2458.527,3.274875,-7.173028,-0.8858546,0.9576807,-0.4580637,-0.1864213,-0.1278317,260,-1097,60
2458.531,3.278781,-7.417237,-1.005565,0.7374141,-0.4665858,-0.2119876,-0.1555286,277,-1034,96
2458.535,3.282688,-7.718906,-1.024718,0.4548983,-0.4825648,-0.2428803,-0.1842907,254,-1024,73
2458.539,3.286594,-8.044518,-1.067814,0.2394202,-0.495348,-0.2620551,-0.2034655,280,-1003,56
2458.543,3.2905,-8.312668,-1.015142,0.06703765,-0.5091964,-0.2759035,-0.2194445,299,-1050,41
2458.547,3.294406,-8.571242,-1.005565,-0.02873042,-0.5209143,-0.2918825,-0.2322276,309,-1056,95
2458.551,3.298313,-8.882488,-0.9385271,-0.1819593,-0.531567,-0.314253,-0.2471413,285,-1041,71
2458.555,3.302219,-9.064447,-0.890643,-0.4261679,-0.5283712,-0.3270362,-0.2588593,278,-1026,33
2458.559,3.306125,-9.212888,-0.8092402,-0.6703765,-0.5230448,-0.3312972,-0.2684466,306,-1020,65
2458.562,3.310031,-9.337386,-0.6991069,-0.890643,-0.5102617,-0.3281014,-0.2748382,307,-1040,27
2458.566,3.313938,-9.337386,-0.593762,-1.072602,-0.4740427,-0.3217099,-0.2844256,326,-1084,68
2458.57,3.317844,-9.246407,-0.5985504,-1.163582,-0.4442153,-0.3153183,-0.2897519,255,-1020,97
2458.574,3.32175,-9.150639,-0.5554548,-1.106121,-0.4101268,-0.3131877,-0.2897519,266,-1005,25
2458.578,3.325656,-8.968679,-0.4309563,-0.9624691,-0.3760383,-0.3227751,-0.294013,306,-1046,50
2458.582,3.329563,-8.714894,-0.296881,-0.7230489,-0.3291667,-0.3398194,-0.2961435,307,-1042,86
2458.586,3.333469,-8.403648,-0.1292869,-0.4070143,-0.3057309,-0.3589941,-0.298274,247,-1059,116
2458.59,3.337375,-8.288726,-0.1149217,-0.2106897,-0.294013,-0.3739078,-0.3004046,248,-984,16
2458.594,3.341281,-8.116344,-0.04788403,-0.04309563,-0.2705772,-0.3792341,-0.2929477,316,-976,44
2458.598,3.345188,-8.135497,0.02873042,0.1867477,-0.2482066,-0.3739078,-0.2897519,314,-1064,48
2458.602,3.349094,-8.212112,0.1101333,0.248997,-0.2439456,-0.366451,-0.2854909,311,-1058,77
2458.605,3.353,-8.374917,0.2011129,0.2394202,-0.2407498,-0.3515373,-0.2844256,255,-1016,58
2458.609,3.356906,-8.681375,0.09576807,0.4548983,-0.2503371,-0.3270362,-0.2822951,305,-989,3
2458.613,3.360813,-9.045294,-0.04309563,0.6368576,-0.273773,-0.2908172,-0.2812298,342,-1031,38
2458.617,3.364719,-9.562441,-0.3064578,0.4501099,-0.3387541,-0.2045308,-0.2727077,344,-1061,74
2458.621,3.368625,-10.06522,-0.3926491,-0.1340753,-0.4165184,-0.1054612,-0.2705772,242,-1051,114
2458.625,3.372531,-10.66856,-0.6512229,-0.617704,-0.4974785,0.01704423,-0.2567287,276,-984,48
2458.629,3.376438,-11.34373,-1.192312,-0.5315128,-0.592287,0.1842907,-0.2332929,325,-1038,79
2458.633,3.380344,-11.88961,-1.398214,-0.02394202,-0.648746,0.2822951,-0.2141182,291,-1062,32
2458.637,3.38425,-12.26789,-1.556231,0.5171476,-0.6881608,0.3557983,-0.1874865,349,-1020,67
2458.641,3.388156,-12.64138,-1.632846,1.072602,-0.7062703,0.4090615,-0.1544633,272,-1009,101
2458.645,3.392063,-12.94305,-1.608904,1.474828,-0.6881608,0.4356932,-0.1214401,277,-1024,37
2458.648,3.395969,-13.2543,-1.326388,1.675941,-0.6157228,0.4356932,-0.06817692,292,-1061,53
2458.652,3.399875,-13.37401,-0.9911995,1.417367,-0.5411543,0.4197142,-0.02343582,349,-1066,93
2458.656,3.403781,-13.45541,-0.6847417,0.8044518,-0.459129,0.3994742,0.0330232,274,-1052,102
2458.66,3.407688,-13.5033,-0.3543418,0.1101333,-0.3632552,0.3728426,0.08841695,301,-983,66
2458.664,3.411594,-13.57512,-0.009576807,-0.5267244,-0.2130529,0.3153183,0.1672465,301,-990,31
2458.668,3.4155,-13.65174,0.1005565,-0.7038953,-0.08948221,0.2503371,0.221575,276,-1061,10
2458.672,3.419406,-13.73314,0.1388637,-0.6847417,0.02343582,0.1555286,0.257794,324,-1064,115
2458.676,3.423313,-13.75708,0.06224924,-0.6943185,0.1193096,0.0298274,0.273773,268,-1122,78
2458.68,3.427219,-13.73793,-0.2777274,-0.9097966,0.2183792,-0.1821602,0.2844256,253,-997,63
2458.684,3.431125,-13.61343,-0.5315128,-1.192312,0.2961435,-0.3632552,0.298274,329,-1007,65
2458.688,3.435031,-13.35965,-0.6799533,-1.661576,0.3557983,-0.5539375,0.3163835,331,-1007,66
2458.691,3.438938,-13.06755,-0.7517793,-2.073379,0.3771036,-0.7233146,0.330232,254,-1049,68
2458.695,3.442844,-12.43548,-0.818817,-2.901772,0.3238404,-0.8713863,0.3398194,315,-1015,53
2458.699,3.44675,-12.04762,-0.7182605,-3.256114,0.2237055,-0.8905611,0.3451457,277,-988,46
2458.703,3.450656,-11.48259,-0.7757213,-2.087744,0.08202536,-0.8181231,0.3440804,334,-1067,13
2458.707,3.454563,-10.9846,-1.086968,0.4261679,-0.05539375,-0.6402239,0.3589941,313,-1019,57
2458.711,3.458469,-10.6925,-1.125275,3.667917,-0.1587244,-0.3312972,0.3984089,250,-1020,104
2458.715,3.462375,-11.06121,-1.163582,8.039729,-0.257794,0.2950782,0.4985438,247,-984,20
2458.719,3.466281,-12.30141,-0.7278373,6.445191,-0.3376888,0.809601,0.5688512,332,-989,28
2458.723,3.470188,-13.66131,-0.004788403,2.964022,-0.4282363,1.179248,0.6455502,290,-1057,17
2458.727,3.474094,-14.49929,-0.5602432,2.753332,-0.4314321,1.264469,0.7392935,315,-1018,72
2458.73,3.478,-14.7004,-2.006341,3.768473,-0.1981392,0.9299759,0.8554073,258,-1009,66
2458.734,3.481906,-14.47055,-3.045425,4.012682,-0.03941478,0.5251754,0.9448896,262,-986,47
2458.738,3.485813,-14.01087,-3.524265,3.145981,0.09267801,0.1906823,1.029045,315,-1032,27
2458.742,3.489719,-13.96298,-3.62961,2.408567,0.1821602,0.01384844,1.134507,297,-1044,96
2458.746,3.493625,-14.43225,-4.323928,2.99754,0.3355583,-0.04367584,1.219728,272,-1024,82
2458.75,3.497531,-14.86799,-4.611232,2.911349,0.5209143,-0.08735168,1.24849,307,-995,24
2458.754,3.501438,-15.02601,-4.141969,1.292869,0.6593987,-0.09800433,1.266599,313,-1007,26
2458.758,3.505344,-14.86799,-3.56736,-0.07182605,0.6902914,0,1.306014,341,-1065,37
2458.762,3.50925,-14.29817,-3.53863,0.9241618,0.6732471,0.1736381,1.337972,314,-1079,66
2458.766,3.513156,-13.76187,-4.209007,2.27928,0.7712515,0.1928129,1.2911,290,-1039,74
2458.77,3.517063,-13.24951,-4.424485,3.332729,0.9864349,0.1033307,1.177117,324,-987,44
2458.773,3.520969,-12.47858,-4.165911,3.720589,1.205879,-0.02450108,1.067395,310,-984,51
2458.777,3.524875,-11.42513,-2.925714,3.955221,1.335842,-0.1427454,1.000283,365,-1042,69
2458.781,3.528781,-11.22881,-2.030283,4.955997,1.323058,-0.2002697,0.9981528,278,-1055,82
2458.785,3.532688,-11.2719,-0.8044518,5.84664,1.251686,-0.2918825,0.9981528,225,-971,81
2458.789,3.536594,-11.07558,0.5889736,5.315128,1.075917,-0.3728426,1.00774,331,-981,20
2458.793,3.5405,-10.17536,1.968034,4.333505,0.7456851,-0.3611246,0.9938917,303,-1069,52
2458.797,3.544406,-9.337386,3.280056,4.845864,0.6018744,-0.2727077,0.9566075,284,-1041,91
2458.801,3.548313,-8.801085,3.835511,6.110003,0.6061355,-0.1576591,0.9086706,249,-1024,58
2458.805,3.552219,-8.734048,4.52983,6.852205,0.6135923,-0.03728426,0.8596684,243,-1016,37
2458.809,3.556125,-8.99741,4.879383,7.225701,0.5422196,0.07030745,0.8394284,299,-979,26
2458.812,3.560031,-9.394847,5.343858,7.110779,0.3888215,0.1757686,0.8543421,288,-1060,82
2458.816,3.563938,-9.533711,5.837064,6.895301,0.257794,0.2141182,0.8671253,271,-1042,76
2458.82,3.567844,-9.605537,6.359,6.636727,0.1246359,0.2269013,0.8735168,246,-944,75
2458.824,3.57175,-9.572018,6.473921,6.636727,-0.001065264,0.2173139,0.8607337,256,-974,17
2458.828,3.575656,-9.629479,6.531382,6.272808,-0.1012001,0.1938781,0.8490158,307,-1049,28
2458.832,3.579563,-9.902418,6.469133,5.746084,-0.1565939,0.169377,0.8468852,284,-1027,28
2458.836,3.583469,-10.37168,6.263232,5.482722,-0.1960087,0.1310275,0.8607337,219,-1054,79
2458.84,3.587375,-10.98939,6.086061,5.243302,-0.2450108,0.07882957,0.8799084,227,-990,20
2458.844,3.591281,-11.8513,5.602432,4.922479,-0.3696468,-0.00958738,0.8713863,343,-1010,34
2458.848,3.595188,-12.42591,4.941632,4.577714,-0.4601942,-0.07563377,0.850081,304,-1073,83
2458.852,3.599094,-13.04361,4.103662,4.252102,-0.5230448,-0.1342233,0.8042746,259,-1050,83
2458.855,3.603,-13.71399,3.165135,3.864241,-0.5400891,-0.1778992,0.7510114,227,-978,87
2458.859,3.606906,-14.54717,2.063802,3.466804,-0.5550028,-0.2162487,0.6636597,275,-990,34
2458.863,3.610813,-15.17924,1.240196,3.117251,-0.5763081,-0.2428803,0.5912218,340,-1054,25
2458.867,3.614719,-15.71554,0.4213795,2.719813,-0.5986786,-0.2759035,0.5081311,276,-1055,74
2458.871,3.618625,-15.93581,-0.4788403,2.260126,-0.6199839,-0.3217099,0.4101268,228,-1043,25
2458.875,3.622531,-15.89271,-1.872266,1.776498,-0.6199839,-0.3973436,0.2524677,271,-986,24
2458.879,3.626438,-15.45697,-2.786851,1.417367,-0.5848302,-0.4644553,0.1246359,308,-1045,44
2458.883,3.630344,-14.74828,-3.691859,0.9864111,-0.5134575,-0.5347627,0.001065264,298,-1019,52
2458.887,3.63425,-13.75229,-4.390966,0.8858546,-0.4101268,-0.6008091,-0.108657,282,-1017,103
2458.891,3.638156,-12.17212,-5.013458,0.8619126,-0.2673814,-0.6775082,-0.2269013,240,-966,51
2458.895,3.642063,-10.9415,-5.492299,0.914585,-0.1597897,-0.7190535,-0.3004046,261,-981,27
2458.898,3.645969,-9.725247,-5.492299,1.005565,-0.0628506,-0.7478156,-0.3579289,292,-1044,35
2458.902,3.649875,-8.705317,-5.492299,0.9193734,0.02450108,-0.7605988,-0.3962784,266,-1027,94
2458.906,3.653781,-7.747637,-5.291186,0.9337386,0.1001349,-0.7584683,-0.4207795,234,-1042,55
2458.91,3.657688,-6.804321,-4.912902,0.9193734,0.1896171,-0.7329019,-0.4388889,282,-1016,27
2458.914,3.661594,-6.248866,-4.548983,0.9911995,0.257794,-0.700944,-0.4442153,306,-968,45
2458.918,3.6655,-5.755661,-4.170699,1.063026,0.3153183,-0.664725,-0.4506069,281,-1021,51
2458.922,3.669406,-5.449203,-3.763685,1.182736,0.3696468,-0.6338323,-0.4527374,307,-1036,83
2458.926,3.673313,-5.142745,-3.323152,1.312023,0.4261058,-0.5795039,-0.4538026,269,-980,61
2458.93,3.677219,-5.003881,-3.021482,1.331176,0.4580637,-0.5294364,-0.4623248,250,-987,22
2458.934,3.681125,-4.908113,-2.700659,1.383849,0.4900216,-0.4772385,-0.4740427,330,-985,53
2458.938,3.685031,-4.841076,-2.547431,1.513135,0.5145227,-0.4303668,-0.4846953,346,-1034,72
2458.941,3.688938,-4.865018,-2.403778,1.561019,0.5347627,-0.3749731,-0.499609,289,-1030,73
2458.945,3.692844,-4.860229,-2.298434,1.608904,0.5464807,-0.3334278,-0.5102617,245,-1013,98
2458.949,3.69675,-4.783615,-2.173935,1.599327,0.5581986,-0.2972088,-0.519849,309,-1000,60
2458.953,3.700656,-4.821922,-2.116474,1.613692,0.5731123,-0.2652508,-0.5283712,290,-1058,38
2458.957,3.704563,-4.831499,-1.92015,1.580173,0.5869607,-0.2290319,-0.535828,343,-1031,79
2458.961,3.708469,-4.793192,-1.848324,1.551443,0.5944176,-0.1970739,-0.5400891,274,-1013,118
2458.965,3.712375,-4.869806,-1.790863,1.580173,0.5986786,-0.1725728,-0.5486112,285,-996,52
2458.969,3.716281,-4.979939,-1.714248,1.647211,0.6029397,-0.1480718,-0.5571333,300,-986,48
2458.973,3.720188,-5.023035,-1.675941,1.58975,0.5997439,-0.1278317,-0.5688512,312,-1063,84
2458.977,3.724094,-5.09965,-1.517924,1.632846,0.5944176,-0.1182444,-0.5752428,271,-1016,61
2458.98,3.728,-5.114015,-1.431733,1.58975,0.5901565,-0.1054612,-0.5784386,283,-981,65
2458.984,3.731906,-5.24809,-1.273715,1.513135,0.5858954,-0.09480853,-0.5795039,262,-1001,26
2458.988,3.735813,-5.209783,-1.173159,1.369483,0.5858954,-0.07989483,-0.5795039,295,-1039,45
2458.992,3.739719,-5.243302,-0.9097966,1.335965,0.5773733,-0.04900216,-0.5624596,344,-1046,78
2458.996,3.743625,-5.286397,-0.6943185,1.254562,0.5688512,-0.0149137,-0.5443501,287,-1037,90
2459,3.747531,-5.24809,-0.5793968,1.177947,0.556068,0.03515373,-0.519849,253,-996,43
2459.004,3.751438,-5.171476,-0.3830723,1.101333,0.5464807,0.09906959,-0.4900216,300,-1012,24
2459.008,3.755344,-5.228936,-0.07661445,1.024718,0.5379585,0.1981392,-0.4420847,303,-1044,51
2459.012,3.75925,-5.176264,0.1771709,1.063026,0.5368933,0.2748382,-0.4037352,252,-1031,77
2459.016,3.763156,-5.243302,0.3687071,1.11091,0.5379585,0.3408846,-0.3611246,256,-985,57
2459.02,3.767063,-5.358223,0.6320692,1.23062,0.535828,0.3984089,-0.314253,266,-1009,51
2459.023,3.770969,-5.396531,0.8283938,1.37906,0.5273059,0.4346279,-0.2524677,313,-1072,36
2459.027,3.774875,-5.477933,1.053449,1.47004,0.5187838,0.4506069,-0.2002697,284,-1011,60
2459.031,3.778781,-5.516241,1.225831,1.417367,0.515588,0.4559332,-0.1502023,269,-1060,104
2459.035,3.782688,-5.540183,1.28808,1.35033,0.5134575,0.4548679,-0.0958738,277,-1003,61
2459.039,3.786594,-5.650316,1.455675,1.307234,0.5113269,0.4527374,-0.02876214,295,-1020,30
2459.043,3.7905,-5.707777,1.493982,1.374272,0.5091964,0.4495416,0.0149137,308,-1034,28
2459.047,3.794406,-5.813122,1.584961,1.374272,0.5123922,0.4356932,0.05113269,288,-1064,81
2459.051,3.798313,-6.100426,1.623269,1.374272,0.5177185,0.4111921,0.08415589,233,-990,88
2459.055,3.802219,-6.344634,1.565808,1.388637,0.519849,0.3771036,0.1257012,255,-1050,51
2459.059,3.806125,-6.612785,1.527501,1.283292,0.5134575,0.3536678,0.1480718,270,-1050,47
2459.062,3.810031,-6.909666,1.465251,1.273715,0.5091964,0.3312972,0.1672465,304,-1046,80
2459.066,3.813938,-7.153875,1.374272,1.192312,0.499609,0.3121225,0.1874865,268,-1042,40
2459.07,3.817844,-7.565677,1.211466,1.072602,0.4857606,0.2854909,0.2098571,244,-1006,30
2459.074,3.82175,-7.94875,1.043872,0.9720459,0.4729774,0.2652508,0.221575,336,-1006,55
2459.078,3.825656,-8.288726,0.9720459,0.9768343,0.4580637,0.241815,0.2343582,315,-1043,11
2459.082,3.829563,-8.729259,0.8331822,0.890643,0.4420847,0.2162487,0.2407498,271,-1049,106
2459.086,3.833469,-9.308656,0.7422025,0.842759,0.4293016,0.1800297,0.2482066,247,-1008,54
2459.09,3.837375,-9.677363,0.6272808,0.7900865,0.40267,0.1257012,0.2503371,247,-1011,27
2459.094,3.841281,-10.1562,0.5027823,0.7517793,0.3941478,0.07882957,0.2503371,316,-1029,50
2459.098,3.845188,-10.58237,0.4357447,0.7517793,0.3888215,0.02450108,0.2471413,277,-1077,86
2459.102,3.849094,-10.96066,0.3878607,0.6751649,0.3792341,-0.0330232,0.241815,272,-1064,71
2459.105,3.853,-11.5209,0.3160346,0.5315128,0.3621899,-0.1150486,0.2290319,260,-996,80
2459.109,3.856906,-11.89918,0.2633622,0.3734955,0.3483415,-0.1778992,0.2183792,333,-1034,0
2459.113,3.860813,-12.20085,0.2059013,0.2537854,0.3376888,-0.2407498,0.205596,350,-1042,67
2459.117,3.864719,-12.469,0.1771709,-0.03351882,0.3249057,-0.3067962,0.1874865,325,-1018,73
2459.121,3.868625,-12.74194,0.08619126,-0.3543418,0.3036004,-0.386691,0.1629855,242,-1044,70
2459.125,3.872531,-12.82813,-0.01436521,-0.6129156,0.2876214,-0.4388889,0.144876,255,-1017,1
2459.129,3.876438,-12.84729,-0.1388637,-0.9624691,0.2716424,-0.4772385,0.1278317,314,-979,52
2459.133,3.880344,-12.71321,-0.2059013,-1.25935,0.2556635,-0.499609,0.1107875,286,-1083,90
2459.137,3.88425,-12.24395,-0.2154781,-1.58975,0.2343582,-0.5113269,0.09480853,238,-1041,69
2459.141,3.888156,-11.83214,-0.3016694,-1.47004,0.2141182,-0.5038701,0.08735168,241,-985,88
2459.145,3.892063,-11.36767,-0.3112462,-1.35033,0.1970739,-0.4825648,0.0777643,277,-994,33
2459.148,3.895969,-10.79785,-0.4261679,-1.11091,0.1917476,-0.4495416,0.07243798,320,-1042,52
2459.152,3.899875,-10.17536,-0.4979939,-0.6847417,0.1928129,-0.3952131,0.0777643,325,-1046,94
2459.156,3.903781,-9.80665,-0.5315128,-0.2920926,0.1992044,-0.3536678,0.0809601,263,-1028,82
2459.16,3.907688,-9.471462,-0.4644751,0.09097966,0.2034655,-0.3185141,0.08415589,260,-975,21
2459.164,3.911594,-9.251195,-0.3543418,0.4596867,0.1938781,-0.2972088,0.08735168,309,-1000,52
2459.168,3.9155,-8.978256,-0.3016694,0.7805097,0.1789644,-0.2748382,0.08948221,272,-1055,48
2459.172,3.919406,-8.8777,-0.2681506,0.7565677,0.1821602,-0.2641856,0.1001349,296,-1033,69
2459.176,3.923313,-8.753201,-0.09576807,0.7469909,0.1917476,-0.2322276,0.09906959,229,-974,68
2459.18,3.927219,-8.825027,0.1340753,0.8092402,0.2045308,-0.1864213,0.1001349,275,-1015,17
2459.184,3.931125,-8.844181,0.4022259,0.6655881,0.2226403,-0.1246359,0.1097222,292,-1066,30
2459.188,3.935031,-9.02614,0.7661445,0.56982,0.2545982,-0.0330232,0.1235707,285,-1034,56
2459.191,3.938938,-9.284714,1.058237,0.4309563,0.2865561,0.04687164,0.1331581,252,-1072,117
2459.195,3.942844,-9.576807,1.35033,0.4692635,0.3195793,0.1193096,0.1331581,242,-995,23
2459.199,3.94675,-10.04128,1.666364,0.56982,0.3419499,0.1597897,0.1299623,303,-1021,29
2459.203,3.950656,-10.59674,2.001553,0.9289502,0.309992,0.1544633,0.1150486,296,-1046,42
2459.207,3.954563,-10.87925,2.130839,1.015142,0.2482066,0.1118528,0.09800433,280,-1052,42
2459.211,3.958469,-11.16656,2.178724,0.9864111,0.1800297,0.05326322,0.07243798,232,-1022,80
2459.215,3.962375,-11.39161,2.116474,0.9768343,0.1107875,0.008522115,0.04154531,242,-981,23
2459.219,3.966281,-11.69807,1.92015,0.2777274,0.04261058,-0.004261058,0.006391587,319,-1000,34
2459.223,3.970188,-11.96622,1.73819,-0.1723825,0.01704423,0.02450108,-0.0181095,301,-1070,119
2459.227,3.974094,-12.2631,1.608904,-0.3351882,-0.0181095,0.07137272,-0.04048005,267,-1064,81
2459.23,3.978,-12.5935,1.522712,-0.4453215,-0.07882957,0.1065264,-0.0628506,246,-981,55
2459.234,3.981906,-13.0053,1.321599,-0.5171476,-0.1725728,0.0958738,-0.09800433,303,-991,32
2459.238,3.985813,-13.19205,1.412579,-0.5410896,-0.2332929,0.03195793,-0.1267665,296,-1031,57
2459.242,3.989719,-13.15853,1.810016,-0.4453215,-0.2961435,-0.07563377,-0.1555286,301,-1059,90
2459.246,3.993625,-13.02925,2.106897,-0.4118027,-0.3451457,-0.221575,-0.1757686,230,-1011,64
2459.25,3.997531,-12.61744,2.217031,0.4070143,-0.3387541,-0.4303668,-0.2002697,280,-998,51
2459.254,4.001438,-12.0572,2.212242,1.776498,-0.2929477,-0.5400891,-0.2130529,285,-982,68
2459.258,4.005344,-11.20486,1.939303,4.07972,-0.2524677,-0.5699165,-0.2194445,301,-1046,70
2459.262,4.00925,-10.34774,1.35033,7.445967,-0.2300971,-0.4665858,-0.221575,223,-1050,88
2459.266,4.013156,-10.01734,-0.1005565,8.034941,-0.1938781,-0.1118528,-0.201335,243,-1019,69
2459.27,4.017063,-10.8601,-0.9241618,4.553772,-0.1065264,0.2556635,-0.2130529,254,-982,53
2459.273,4.020969,-11.48259,-0.2777274,2.705448,-0.03728426,0.5571333,-0.2364887,274,-1054,34
2459.277,4.024875,-11.41077,0.9002198,3.572149,-0.07882957,0.7030745,-0.2450108,320,-1075,102
2459.281,4.028781,-11.26232,2.202666,4.639963,-0.2886867,0.716923,-0.2790993,277,-998,60
2459.285,4.032688,-11.75553,3.241749,4.060566,-0.427171,0.6593987,-0.4111921,251,-1026,25
2459.289,4.036594,-12.61744,3.519476,3.711013,-0.4708469,0.6466155,-0.5571333,311,-998,36
2459.293,4.0405,-13.46499,4.218583,4.146757,-0.46339,0.664725,-0.7307714,298,-1020,83
2459.297,4.044406,-14.80574,5.439626,5.224148,-0.5422196,0.6562029,-0.9076053,217,-1026,77
2459.301,4.048313,-15.72033,6.014235,5.324704,-0.7914915,0.5145227,-1.117462,241,-975,51
2459.305,4.052219,-16.10819,5.439626,3.687071,-0.8841695,0.3494067,-1.258077,261,-990,41
2459.309,4.056125,-15.41387,4.534618,1.977611,-0.8010789,0.2226403,-1.351821,301,-1060,25
2459.312,4.060031,-13.71399,3.696647,1.316811,-0.6530071,0.181095,-1.361408,306,-1027,61
2459.316,4.063938,-11.17613,2.619257,2.810793,-0.6093313,0.2705772,-1.283644,267,-1018,77
2459.32,4.067844,-9.792285,1.632846,5.511452,-0.7094661,0.3877563,-1.18777,288,-970,19
2459.324,4.07175,-9.308656,0.6033388,6.976704,-0.8436894,0.4900216,-1.101483,320,-1008,37
2459.328,4.075656,-9.136274,-0.06224924,6.421249,-0.8990832,0.5550028,-1.020523,312,-1069,98
2459.332,4.079563,-8.734048,0.04309563,5.635951,-0.8894958,0.6008091,-0.9214537,314,-1042,88
2459.336,4.083469,-8.331822,0.06703765,5.176264,-0.8490158,0.6370281,-0.8628642,249,-1012,69
2459.34,4.087375,-8.039729,-0.8140286,4.807557,-0.7424893,0.7115966,-0.8479505,290,-1025,57
2459.344,4.091281,-7.809886,-2.274492,4.544195,-0.5677859,0.8351673,-0.8532768,295,-1051,25
2459.348,4.095188,-7.73806,-4.601656,4.821922,-0.3568636,1.034372,-0.8447547,295,-1075,122
2459.352,4.099094,-7.819463,-6.186617,5.066131,-0.2599245,1.154747,-0.8117315,308,-1073,59
2459.355,4.103,-7.872135,-6.924031,4.812345,-0.2151834,1.20801,-0.7595335,277,-996,62
2459.359,4.106906,-7.915231,-7.010222,4.67827,-0.1821602,1.178182,-0.6988135,331,-1002,46
2459.363,4.110813,-8.101978,-6.919243,4.812345,-0.1235707,1.020523,-0.6231797,319,-1052,61
2459.367,4.114719,-8.437167,-6.952762,5.032612,-0.06711166,0.8479505,-0.5954828,289,-1064,65
2459.371,4.118625,-8.801085,-7.240066,5.114015,0.01278317,0.6583334,-0.6072007,257,-991,59
2459.375,4.122531,-9.232042,-7.422025,5.056554,0.1012001,0.4889564,-0.6434197,270,-987,31
2459.379,4.126438,-9.878476,-7.474698,4.716577,0.2162487,0.3046656,-0.7041398,322,-1032,48
2459.383,4.130344,-10.85052,-7.038953,4.572925,0.3004046,0.1874865,-0.7403588,319,-1026,94
2459.387,4.13425,-11.82257,-6.421249,4.271256,0.370712,0.1033307,-0.7723167,241,-1052,45
2459.391,4.138156,-12.94784,-5.612009,4.410119,0.4111921,0.04261058,-0.7978831,258,-1011,1
2459.395,4.142063,-14.66688,-4.774038,4.304775,0.4143879,-0.01384844,-0.8266452,326,-1046,43
2459.398,4.145969,-16.00763,-3.318364,4.122815,0.3920173,-0.1150486,-0.8649947,290,-1085,37
2459.402,4.149875,-17.41063,-2.145205,3.945644,0.3632552,-0.201335,-0.8713863,282,-1062,68
2459.406,4.153781,-18.59816,-1.000776,3.610456,0.3270362,-0.2918825,-0.8532768,258,-1012,60
2459.41,4.157688,-19.54147,0.225055,3.232172,0.2886867,-0.3920173,-0.809601,257,-1003,8
2459.414,4.161594,-20.25016,1.666364,2.432509,0.2364887,-0.5134575,-0.7041398,323,-976,40
2459.418,4.1655,-20.00116,2.643199,1.843535,0.1842907,-0.588026,-0.5954828,344,-1021,102
2459.422,4.169406,-19.12967,3.414132,1.316811,0.1267665,-0.6359629,-0.4644553,252,-1035,112
2459.426,4.173313,-17.58302,4.027047,1.082179,0.05539375,-0.664725,-0.330232,271,-1007,80
2459.43,4.177219,-14.89672,4.472369,0.9433155,-0.05326322,-0.680704,-0.1661813,275,-1014,37
2459.434,4.181125,-12.80898,4.582502,0.9337386,-0.1320928,-0.664725,-0.07989483,309,-1031,57
2459.438,4.185031,-10.76433,4.67827,1.043872,-0.201335,-0.6317018,-0.01065264,319,-1087,127
2459.441,4.188938,-9.174581,4.659116,1.197101,-0.257794,-0.588026,0.03728426,268,-1079,82
2459.445,4.192844,-7.623138,4.553772,1.359907,-0.3025351,-0.5251754,0.1043959,253,-983,78
2459.449,4.19675,-6.962338,4.371812,1.517924,-0.3163835,-0.4878911,0.1523328,338,-987,49
2459.453,4.200656,-6.497863,4.003105,1.613692,-0.3270362,-0.4612595,0.1970739,312,-1070,106
2459.457,4.204563,-6.402095,3.62961,1.671153,-0.3323625,-0.4538026,0.2343582,222,-1072,71
2459.461,4.208469,-6.378153,2.973598,1.599327,-0.3398194,-0.4474111,0.2876214,272,-1021,59
2459.465,4.212375,-6.426037,2.422932,1.517924,-0.3408846,-0.4367584,0.330232,247,-1023,66
2459.469,4.216281,-6.454768,1.982399,1.441309,-0.3526025,-0.4122573,0.3621899,282,-1061,41
2459.473,4.220188,-6.464344,1.551443,1.398214,-0.370712,-0.3760383,0.3898868,299,-1042,73
2459.477,4.224094,-6.560113,1.039084,1.331176,-0.3888215,-0.3078614,0.427171,277,-1045,86
2459.48,4.228,-6.512229,0.6512229,1.240196,-0.4005394,-0.241815,0.4559332,258,-984,46
2459.484,4.231906,-6.540959,0.4070143,1.206678,-0.40267,-0.185356,0.479369,335,-982,17
2459.488,4.235813,-6.540959,0.2154781,1.278504,-0.4037352,-0.1310275,0.5028048,286,-1080,36
2459.492,4.239719,-6.50744,0.05746084,1.201889,-0.40267,-0.09054748,0.5230448,314,-1066,95
2459.496,4.243625,-6.435614,-0.04788403,1.254562,-0.40267,-0.05113269,0.5475459,286,-1032,66
2459.5,4.247531,-6.315904,-0.08140286,1.235408,-0.4016047,-0.02876214,0.556068,251,-974,27
2459.504,4.251438,-6.200982,-0.1723825,1.25935,-0.4005394,-0.007456851,0.5635249,322,-1051,59
2459.508,4.255344,-6.114791,-0.2154781,1.244985,-0.3994742,0.01065264,0.5667207,308,-1057,93
2459.512,4.25925,-5.995081,-0.2202666,1.192312,-0.4005394,0.03195793,0.5688512,259,-1038,66
2459.516,4.263156,-5.918467,-0.3016694,1.283292,-0.4037352,0.03515373,0.5603291,248,-988,44
2459.52,4.267063,-5.813122,-0.3351882,1.254562,-0.4101268,0.03728426,0.5507417,300,-989,30
2459.523,4.270969,-5.731719,-0.3160346,1.244985,-0.4143879,0.03195793,0.5368933,344,-1003,60
2459.527,4.274875,-5.640739,-0.3734955,1.273715,-0.4293016,0.0181095,0.5038701,299,-1030,87
2459.531,4.278781,-5.540183,-0.4022259,1.221043,-0.4356932,0.00958738,0.479369,267,-985,55
2459.535,4.282688,-5.453991,-0.4357447,1.187524,-0.4410195,-0.003195793,0.4474111,250,-978,42
2459.539,4.286594,-5.372589,-0.3782839,1.249773,-0.4474111,-0.007456851,0.4133226,298,-994,16
2459.543,4.2905,-5.305551,-0.3399766,1.182736,-0.4569984,-0.01917476,0.3653857,319,-1051,73
2459.547,4.294406,-5.27682,-0.3256114,1.144428,-0.4559332,-0.02130529,0.330232,249,-1057,104
2459.551,4.298313,-5.252878,-0.225055,1.182736,-0.4601942,-0.02663161,0.2918825,253,-1012,60
2459.555,4.302219,-5.228936,-0.1819593,1.182736,-0.46339,-0.02343582,0.2535329,259,-1002,36
2459.559,4.306125,-5.181052,-0.1388637,1.25935,-0.4697816,-0.02769688,0.1949434,343,-1056,20
2459.562,4.310031,-5.224148,-0.1628057,1.264138,-0.4665858,-0.0298274,0.1565939,319,-1053,85
2459.566,4.313938,-5.262455,-0.1292869,1.273715,-0.4612595,-0.03408846,0.1203749,229,-1019,74
2459.57,4.317844,-5.291186,-0.1149217,1.192312,-0.4527374,-0.03621899,0.07882957,284,-965,40
2459.574,4.32175,-5.353435,-0.1340753,1.197101,-0.4314321,-0.0330232,0.02663161,318,-1028,42
2459.578,4.325656,-5.425261,-0.1628057,1.201889,-0.4079963,-0.03408846,-0.01278317,340,-1034,74
2459.582,4.329563,-5.544971,-0.1628057,1.221043,-0.3898868,-0.0330232,-0.04900216,238,-1024,95
2459.586,4.333469,-5.650316,-0.1292869,1.158794,-0.3760383,-0.03089267,-0.08628642,254,-1022,79
2459.59,4.337375,-5.827487,-0.1101333,1.158794,-0.3632552,-0.03089267,-0.1235707,230,-997,55
2459.594,4.341281,-5.990293,-0.1388637,1.13964,-0.3430151,-0.05006743,-0.165116,324,-1050,58
2459.598,4.345188,-6.172252,-0.2537854,1.187524,-0.3323625,-0.0660464,-0.1992044,316,-1040,101
2459.602,4.349094,-6.306327,-0.2873042,1.082179,-0.3206446,-0.09480853,-0.2269013,269,-1044,59
2459.605,4.353,-6.445191,-0.3160346,0.9576807,-0.3163835,-0.1246359,-0.2514024,299,-1004,32
2459.609,4.356906,-6.756437,-0.3782839,0.8762778,-0.3153183,-0.1640507,-0.278034,302,-1023,87
2459.613,4.360813,-7.024588,-0.4022259,0.8283938,-0.3185141,-0.185356,-0.2886867,295,-1082,38
2459.617,4.364719,-7.354988,-0.4644751,0.6847417,-0.330232,-0.2045308,-0.2972088,271,-1053,47
2459.621,4.368625,-7.64708,-0.4692635,0.5410896,-0.3483415,-0.221575,-0.3078614,253,-1003,80
2459.625,4.372531,-8.06846,-0.5841852,0.4070143,-0.3653857,-0.241815,-0.3121225,272,-986,17
2459.629,4.376438,-8.413225,-0.5746084,0.2011129,-0.3845605,-0.2545982,-0.3195793,283,-1068,29
2459.633,4.380344,-8.681375,-0.6799533,-0.04309563,-0.3888215,-0.2545982,-0.3163835,323,-1022,66
2459.637,4.38425,-8.90643,-0.5793968,-0.320823,-0.4037352,-0.2609898,-0.314253,294,-1051,47
2459.641,4.388156,-9.222465,-0.4884171,-0.6368576,-0.4048005,-0.2439456,-0.3153183,271,-1022,73
2459.645,4.392063,-9.318233,-0.4692635,-0.8092402,-0.4005394,-0.2279666,-0.314253,300,-1022,12
2459.648,4.395969,-9.35654,-0.4884171,-0.9097966,-0.390952,-0.2087918,-0.3153183,301,-1026,26
2459.652,4.399875,-9.375694,-0.4070143,-0.9911995,-0.370712,-0.1949434,-0.314253,320,-1048,45
2459.656,4.403781,-9.193734,-0.2442086,-0.8236054,-0.3419499,-0.1800297,-0.3067962,280,-1019,91
2459.66,4.407688,-8.963891,-0.1963245,-0.6751649,-0.3174488,-0.1768339,-0.3004046,305,-988,71
2459.664,4.411594,-8.734048,-0.1388637,-0.320823,-0.3014698,-0.1789644,-0.2972088,317,-1016,56
2459.668,4.4155,-8.465897,-0.04309563,-0.009576807,-0.2854909,-0.1874865,-0.2886867,334,-1074,121
2459.672,4.419406,-8.322245,0.1101333,0.4118027,-0.2684466,-0.1906823,-0.2727077,256,-1075,82
2459.676,4.423313,-8.2169,0.1819593,0.4836287,-0.2599245,-0.1885518,-0.257794,230,-1018,76
2459.68,4.427219,-8.197746,0.3112462,0.3734955,-0.2460761,-0.1768339,-0.241815,285,-1011,13
2459.684,4.431125,-8.269573,0.4070143,0.3160346,-0.241815,-0.1672465,-0.2322276,305,-1030,52
2459.688,4.435031,-8.408436,0.4261679,0.2633622,-0.2311624,-0.1608549,-0.2226403,314,-1029,108
2459.691,4.438938,-8.628703,0.3687071,0.296881,-0.2205097,-0.1576591,-0.2077266,291,-994,59
2459.695,4.442844,-8.853758,0.3591302,0.4644751,-0.2354234,-0.1395496,-0.1970739,218,-1024,43
2459.699,4.44675,-9.203311,0.2920926,0.5746084,-0.2663161,-0.1065264,-0.185356,291,-1037,31
2459.703,4.450656,-9.619902,0.1388637,0.3926491,-0.3249057,-0.03621899,-0.1800297,350,-1069,85
2459.707,4.454563,-10.21845,-0.1771709,0.03351882,-0.4218447,0.1043959,-0.1555286,266,-1061,98
2459.711,4.458469,-10.66856,-0.4692635,-0.1819593,-0.4868258,0.2354234,-0.1342233,301,-992,42
2459.715,4.462375,-11.20008,-0.7996634,-0.1771709,-0.5486112,0.3653857,-0.1043959,248,-993,42
2459.719,4.466281,-11.57836,-1.086968,0.1244985,-0.5944176,0.4729774,-0.07350325,287,-1057,49
2459.723,4.470188,-12.23437,-1.316811,0.8044518,-0.6210492,0.5581986,-0.01704423,311,-1058,54
2459.727,4.474094,-12.68448,-1.35033,1.25935,-0.6167881,0.572047,0.02450108,251,-1065,74
2459.73,4.478,-13.08671,-1.355118,1.719037,-0.5997439,0.551807,0.06711166,293,-964,20
2459.734,4.481906,-13.35007,-1.235408,1.929727,-0.5624596,0.5091964,0.112918,309,-1026,24
2459.738,4.485813,-13.59907,-1.067814,1.58975,-0.4889564,0.4420847,0.1800297,340,-1043,58
2459.742,4.489719,-13.64695,-0.9959879,0.7900865,-0.4165184,0.3984089,0.2258361,305,-1088,83
2459.746,4.493625,-13.73793,-0.890643,-0.01915361,-0.3227751,0.3653857,0.2748382,274,-1040,43
2459.75,4.497531,-13.84327,-0.8379706,-0.7900865,-0.2130529,0.3334278,0.3195793,298,-987,42
2459.754,4.501438,-13.94383,-0.818817,-1.063026,-0.04367584,0.2428803,0.3600594,289,-1022,20
2459.758,4.505344,-14.06833,-0.8523358,-1.04866,0.07456851,0.1225054,0.3856257,324,-1070,89
2459.762,4.50925,-14.16889,-0.9528923,-0.9816227,0.181095,-0.03834952,0.390952,280,-1075,72
2459.766,4.513156,-14.25987,-1.082179,-0.9433155,0.2748382,-0.2311624,0.3941478,239,-1016,15
2459.77,4.517063,-14.14973,-1.283292,-1.13964,0.3792341,-0.5187838,0.4048005,323,-1040,7
2459.773,4.520969,-13.94862,-1.465251,-1.70946,0.4367584,-0.7318367,0.4133226,301,-1095,17
2459.777,4.524875,-13.64216,-1.513135,-2.284068,0.4665858,-0.9278453,0.40267,292,-1023,86
2459.781,4.528781,-13.15374,-1.551443,-2.916138,0.4452805,-1.062069,0.3781689,285,-1028,61
2459.785,4.532688,-12.36845,-1.479617,-3.864241,0.3366236,-1.103614,0.3419499,292,-993,56
2459.789,4.536594,-11.78426,-0.9864111,-5.185841,0.0298274,-0.9502159,0.2865561,316,-992,25
2459.793,4.5405,-11.53526,-0.7757213,-5.051766,-0.2535329,-0.6881608,0.2556635,316,-1066,86
2459.797,4.544406,-11.21923,-0.8523358,-2.542642,-0.4729774,-0.3472762,0.2545982,299,-1098,30
2459.801,4.548313,-10.94629,-1.082179,1.37906,-0.5677859,0.04261058,0.2865561,293,-1000,60
2459.805,4.552219,-10.29507,-0.9959879,9.605537,-0.5134575,0.5592638,0.3632552,348,-1001,41
2459.809,4.556125,-10.75475,0.3112462,11.15219,-0.4005394,0.9001484,0.4420847,355,-1061,31
2459.812,4.560031,-12.07156,2.212242,6.277597,-0.3739078,1.124919,0.5241101,314,-1052,75
2459.816,4.563938,-12.98615,2.317587,4.041412,-0.3621899,1.133441,0.5773733,245,-1040,42
2459.82,4.567844,-12.68927,0.9002198,5.238513,-0.08841695,0.7648599,0.6380934,270,-1006,26
2459.824,4.57175,-11.78426,0.1963245,5.492299,0.112918,0.3675162,0.7105314,320,-1016,22
2459.828,4.575656,-11.05642,-0.1963245,3.998317,0.1395496,0.1054612,0.8117315,291,-1048,93
2459.832,4.579563,-10.63983,-0.5363012,1.833958,0.01384844,0.1470065,0.9342369,279,-1043,80
2459.836,4.583469,-11.08515,-1.905785,1.824382,-0.05432849,0.5326322,1.032241,256,-1046,61
2459.84,4.587375,-12.37323,-3.44765,2.801216,0.112918,0.7701862,1.047155,260,-988,73
2459.844,4.591281,-14.08748,-3.634398,2.762909,0.3557983,0.8255799,1.032241,288,-1051,45
2459.848,4.595188,-15.49527,-3.414132,2.925714,0.4538026,0.741424,1.113201,331,-1045,58
2459.852,4.599094,-16.18959,-4.247314,5.482722,0.3930826,0.4474111,1.258077,260,-994,77
2459.855,4.603,-15.8161,-5.27682,6.885724,0.4143879,0.09267801,1.275122,276,-991,8
2459.859,4.606906,-14.83447,-4.505888,6.517017,0.5667207,-0.2695119,1.239968,328,-1028,57
2459.863,4.610813,-13.68047,-4.132392,5.439626,0.7765778,-0.4974785,1.219728,283,-1058,93
2459.867,4.614719,-12.33493,-3.711013,4.041412,0.9491506,-0.5581986,1.182444,260,-1040,52
2459.871,4.618625,-11.49217,-2.87783,3.165135,0.9310411,-0.479369,1.154747,264,-977,86
2459.875,4.622531,-10.92714,-1.996764,3.552995,0.8522115,-0.3739078,1.151551,282,-970,54
2459.879,4.626438,-10.44351,-1.072602,4.788403,0.7872304,-0.3238404,1.173921,299,-1027,37
2459.883,4.630344,-9.682152,0.2585738,5.171476,0.6945524,-0.3227751,1.199488,298,-1054,82
2459.887,4.63425,-8.911219,2.351106,5.204994,0.4697816,-0.2886867,1.225054,217,-1038,57
2459.891,4.638156,-7.967903,3.926491,5.506664,0.3089267,-0.2034655,1.241033,278,-1000,20
2459.895,4.642063,-7.264008,4.927267,5.516241,0.2066613,-0.06498113,1.245294,278,-1003,43
2459.898,4.645969,-6.904878,5.482722,5.535394,0.1587244,0.1118528,1.217597,296,-1059,64
2459.902,4.649875,-7.182605,5.880159,5.674258,0.169377,0.3249057,1.165399,326,-1072,81
2459.906,4.653781,-7.565677,6.157887,5.889736,0.1544633,0.4356932,1.128115,231,-1008,74
2459.91,4.657688,-8.020576,6.354211,6.119579,0.1097222,0.4889564,1.091896,223,-1030,9
2459.914,4.661594,-8.552088,6.493075,6.047753,0.03941478,0.4729774,1.049285,275,-1006,49
2459.918,4.6655,-9.308656,6.603208,5.631162,-0.07350325,0.3941478,0.9981528,295,-1056,86
2459.922,4.669406,-9.816227,6.588843,5.243302,-0.1640507,0.3110572,0.9566075,241,-1059,82
2459.926,4.673313,-10.38605,6.435614,4.965574,-0.2684466,0.2322276,0.9054748,257,-1018,74
2459.93,4.677219,-11.08037,6.071695,4.774038,-0.3440804,0.1704423,0.8415589,293,-1019,23
2459.934,4.681125,-12.32535,5.238513,4.611232,-0.4165184,0.1214401,0.7137272,304,-1057,21
2459.938,4.685031,-13.36443,4.381389,4.362235,-0.4527374,0.1001349,0.6040049,302,-1095,74
2459.941,4.688938,-14.40352,3.44765,4.055778,-0.4964132,0.08522115,0.4932174,273,-994,103
2459.945,4.692844,-15.54795,2.418144,3.543418,-0.5400891,0.07989483,0.386691,237,-997,24
2459.949,4.69675,-16.98447,0.8810662,2.935291,-0.5731123,0.07456851,0.2588593,300,-1054,34
2459.953,4.700656,-17.7985,-0.3734955,2.480393,-0.5826996,0.05539375,0.1608549,260,-1053,62
2459.957,4.704563,-18.4162,-1.80044,1.915361,-0.5858954,0.01597897,0.06072007,230,-1055,42
2459.961,4.708469,-18.49281,-3.20823,1.35033,-0.5645902,-0.05539375,-0.04048005,263,-1038,90
2459.965,4.712375,-17.76019,-5.013458,0.7086837,-0.4697816,-0.1917476,-0.1874865,297,-1018,27
2459.969,4.716281,-16.66843,-6.014235,0.4836287,-0.3440804,-0.3249057,-0.3089267,284,-1044,64
2459.973,4.720188,-15.0308,-6.751649,0.4357447,-0.1864213,-0.4527374,-0.4239752,300,-1049,101
2459.977,4.724094,-13.12023,-7.125144,0.5315128,-0.0149137,-0.5592638,-0.5219796,265,-1036,49
2459.98,4.728,-10.57279,-7.163451,0.617704,0.1523328,-0.628506,-0.6029397,225,-1027,25
2459.984,4.731906,-9.002198,-6.981492,0.7517793,0.3451457,-0.6668555,-0.660464,319,-1056,56
2459.988,4.735813,-7.843405,-6.74686,0.7374141,0.46339,-0.660464,-0.6796387,269,-1061,91
2459.992,4.739719,-7.058106,-6.315904,0.8140286,0.5677859,-0.6327671,-0.6860303,267,-1058,60
2459.996,4.743625,-6.483498,-5.875371,0.9289502,0.6562029,-0.6008091,-0.6892261,232,-1026,96
2460,4.747531,-6.047753,-5.200206,1.16837,0.7467504,-0.5752428,-0.6870956,270,-1002,-2
2460.004,4.751438,-5.928043,-4.764461,1.244985,0.8064052,-0.5656554,-0.6838998,296,-1043,48
2460.008,4.755344,-5.875371,-4.232949,1.307234,0.8543421,-0.5581986,-0.6860303,283,-1047,87
2460.012,4.75925,-5.827487,-3.816357,1.297657,0.8894958,-0.5400891,-0.680704,236,-1045,86
2460.016,4.763156,-5.841852,-3.294421,1.302446,0.9310411,-0.495348,-0.6775082,249,-1003,63
2460.02,4.767063,-5.904101,-2.887407,1.297657,0.9598033,-0.4538026,-0.6721819,301,-1006,51
2460.023,4.770969,-5.956774,-2.533065,1.403002,0.9757822,-0.4154531,-0.6700513,277,-1072,24
2460.027,4.774875,-5.980716,-2.284068,1.455675,0.9811085,-0.3739078,-0.6668555,294,-1030,56
2460.031,4.778781,-6.009446,-1.915361,1.580173,0.9832391,-0.3238404,-0.6636597,248,-1005,69
2460.035,4.782688,-6.014235,-1.752556,1.594538,0.974717,-0.294013,-0.6583334,218,-1023,42
2460.039,4.786594,-5.990293,-1.522712,1.73819,0.9619338,-0.2663161,-0.6466155,324,-1060,34
2460.043,4.7905,-5.918467,-1.249773,1.786074,0.9459548,-0.241815,-0.6327671,298,-1016,91
2460.047,4.794406,-5.870582,-0.8714894,1.814805,0.9203885,-0.2045308,-0.6189186,225,-1022,43
2460.051,4.798313,-5.928043,-0.6272808,1.781286,0.8990832,-0.1715076,-0.6103965,253,-1041,27
2460.055,4.802219,-5.951985,-0.4309563,1.795651,0.8756474,-0.1374191,-0.6040049,296,-996,37
2460.059,4.806125,-6.019023,-0.2106897,1.805228,0.8575379,-0.108657,-0.5954828,277,-1035,14
2460.062,4.810031,-6.081272,0.09097966,1.704672,0.829841,-0.07350325,-0.5890912,273,-1044,53
2460.066,4.813938,-6.215348,0.3351882,1.671153,0.8085357,-0.05645902,-0.5890912,242,-1000,92
2460.07,4.817844,-6.244078,0.593762,1.642422,0.7787083,-0.03834952,-0.5901565,243,-1002,46
2460.074,4.82175,-6.320692,0.7517793,1.561019,0.7478156,-0.03195793,-0.5826996,294,-1011,42
2460.078,4.825656,-6.248866,0.8858546,1.436521,0.7105314,-0.02237055,-0.572047,300,-1026,14
2460.082,4.829563,-6.191405,1.01993,1.235408,0.6679208,0.005326322,-0.5464807,204,-1061,104
2460.086,4.833469,-6.129156,1.11091,1.115698,0.6423545,0.04261058,-0.5219796,264,-1005,112
2460.09,4.837375,-5.999869,1.096544,1.04866,0.6263755,0.07989483,-0.4900216,288,-1058,9
2460.094,4.841281,-5.918467,1.158794,1.130063,0.624245,0.112918,-0.4559332,285,-1027,18
2460.098,4.845188,-5.798756,1.278504,1.225831,0.6157228,0.1374191,-0.4058658,301,-1049,115
2460.102,4.849094,-5.6982,1.37906,1.292869,0.6029397,0.1374191,-0.3579289,250,-1008,109
2460.105,4.853,-5.559336,1.517924,1.359907,0.5912218,0.1257012,-0.3078614,235,-1005,31
2460.109,4.856906,-5.391742,1.537077,1.450886,0.5773733,0.1118528,-0.2492719,286,-1020,27
2460.113,4.860813,-5.233725,1.594538,1.493982,0.5656554,0.09054748,-0.1704423,279,-1044,74
2460.117,4.864719,-5.109226,1.666364,1.541866,0.556068,0.07243798,-0.1075917,280,-1058,66
2460.121,4.868625,-5.066131,1.632846,1.541866,0.5496764,0.0628506,-0.04900216,255,-998,94
2460.125,4.872531,-5.042189,1.608904,1.522712,0.5454154,0.05219796,0.007456851,239,-995,33
2460.129,4.876438,-5.094861,1.508347,1.556231,0.5411543,0.05006743,0.0809601,311,-1024,24
2460.133,4.880344,-5.142745,1.383849,1.565808,0.5379585,0.05219796,0.1363538,254,-1044,65
2460.137,4.88425,-5.204994,1.312023,1.58975,0.5347627,0.05752428,0.1885518,261,-1050,68
2460.141,4.888156,-5.396531,1.221043,1.465251,0.5262406,0.06817692,0.2428803,236,-1019,22
2460.145,4.892063,-5.683835,1.015142,1.493982,0.5134575,0.08309063,0.294013,261,-993,38
2460.148,4.895969,-5.980716,0.9002198,1.532289,0.5070659,0.08309063,0.3227751,279,-1055,50
2460.152,4.899875,-6.344634,0.8762778,1.517924,0.5049353,0.06498113,0.350472,252,-1035,85
2460.156,4.903781,-6.722918,0.8714894,1.493982,0.4942827,0.03941478,0.3728426,284,-994,80
2460.16,4.907688,-7.240066,0.818817,1.393425,0.4804343,-0.002130529,0.3834952,256,-1003,40
2460.164,4.911594,-7.694964,0.866701,1.28808,0.4740427,-0.03195793,0.3824299,278,-1054,52
2460.168,4.9155,-8.130709,0.794875,1.16837,0.4708469,-0.06178534,0.3771036,298,-1040,80
2460.172,4.919406,-8.528146,0.8283938,1.04866,0.4644553,-0.09480853,0.3653857,239,-1076,65
2460.176,4.923313,-9.059659,0.8092402,0.7565677,0.4601942,-0.1310275,0.3515373,244,-1017,45
2460.18,4.927219,-9.538499,0.8092402,0.5985504,0.4410195,-0.1725728,0.3185141,279,-963,11
2460.184,4.931125,-9.844957,0.7661445,0.4118027,0.4282363,-0.2109224,0.294013,270,-1065,12
2460.188,4.935031,-10.18015,0.7230489,0.4261679,0.4175837,-0.2450108,0.2609898,300,-1042,70
2460.191,4.938938,-10.48181,0.6991069,0.2873042,0.3984089,-0.2759035,0.2269013,221,-1025,98
2460.195,4.942844,-10.78827,0.6943185,0.2154781,0.3675162,-0.3153183,0.1800297,277,-998,35
2460.199,4.94675,-10.96066,0.545878,0.1005565,0.3462109,-0.3430151,0.1427454,262,-986,43
2460.203,4.950656,-11.04206,0.4261679,0.009576807,0.3259709,-0.370712,0.1022654,295,-1053,89
2460.207,4.954563,-11.066,0.3351882,-0.1005565,0.3078614,-0.3898868,0.06711166,234,-1069,126
2460.211,4.958469,-11.00854,0.2011129,-0.08140286,0.2876214,-0.4037352,0.01597897,232,-1024,38
2460.215,4.962375,-10.92714,0.1101333,-0.05746084,0.2727077,-0.4058658,-0.01597897,261,-998,38
2460.219,4.966281,-10.73081,0.02873042,-0.01915361,0.2663161,-0.3962784,-0.04367584,309,-1038,25
2460.223,4.970188,-10.52491,-0.01915361,-0.04788403,0.2609898,-0.3728426,-0.0628506,302,-1059,84
2460.227,4.974094,-10.21845,-0.05267244,0.01436521,0.2609898,-0.3195793,-0.07882957,260,-995,90
2460.23,4.978,-10.02213,-0.09576807,0.1005565,0.2705772,-0.2673814,-0.08628642,253,-1032,29
2460.234,4.981906,-9.849746,-0.1388637,0.05746084,0.2769688,-0.2162487,-0.08948221,302,-1014,26
2460.238,4.985813,-9.68694,-0.1197101,0.1149217,0.2897519,-0.1597897,-0.08628642,271,-1032,78
2460.242,4.989719,-9.524134,-0.1771709,0.01436521,0.3131877,-0.08202536,-0.07989483,294,-1063,85
2460.246,4.993625,-9.375694,-0.1244985,-0.009576807,0.3323625,-0.02237055,-0.07350325,258,-1010,92
2460.25,4.997531,-9.323021,-0.06224924,-0.03830723,0.3611246,0.03834952,-0.06498113,219,-973,34
2460.254,5.001438,-9.32781,0.1149217,0.01915361,0.3888215,0.1001349,-0.05326322,316,-1067,55
2460.258,5.005344,-9.361328,0.2059013,0.004788403,0.4261058,0.1832255,-0.03941478,280,-1089,70
2460.262,5.00925,-9.519346,0.3830723,-0.07182605,0.4527374,0.241815,-0.03089267,250,-1038,30
2460.266,5.013156,-9.730036,0.5602432,-0.1149217,0.4825648,0.2918825,-0.01917476,257,-1023,73
2460.27,5.017063,-10.0317,0.7278373,-0.1580173,0.5102617,0.3376888,-0.01384844,285,-1011,37
2460.273,5.020969,-10.43393,0.9576807,-0.004788403,0.5145227,0.3568636,-0.01278317,286,-1033,80
2460.277,5.024875,-10.7356,1.283292,0.1388637,0.4857606,0.3462109,-0.01065264,242,-1066,76
2460.281,5.028781,-11.07079,1.393425,0.1580173,0.4548679,0.3163835,-0.01278317,248,-1014,87
2460.285,5.032688,-11.43471,1.417367,0.2154781,0.427171,0.2748382,-0.0181095,222,-982,32
2460.289,5.036594,-11.76511,1.541866,0.1005565,0.3973436,0.2311624,-0.02343582,315,-1043,48
2460.293,5.0405,-12.24395,1.637634,0.01915361,0.3355583,0.169377,-0.0298274,305,-1047,68
2460.297,5.044406,-12.63181,1.766921,-0.1771709,0.2716424,0.1171791,-0.0330232,218,-1037,35
2460.301,5.048313,-12.93348,1.853112,-0.3064578,0.2045308,0.05326322,-0.04474111,206,-1037,23
2460.305,5.052219,-13.31655,1.924938,-0.5123592,0.1416802,-0.0298274,-0.05752428,288,-998,46
2460.309,5.056125,-13.57034,2.078167,-0.6943185,0.06711166,-0.169377,-0.07350325,330,-1046,63
2460.312,5.060031,-13.72356,2.06859,-0.8858546,0.02343582,-0.294013,-0.08415589,323,-1036,81
2460.316,5.063938,-13.7906,2.126051,-1.086968,-0.005326322,-0.427171,-0.09480853,206,-1018,106
2460.32,5.067844,-13.75708,2.126051,-1.412579,-0.01171791,-0.5571333,-0.1033307,231,-1003,29
2460.324,5.07175,-13.59907,2.231396,-1.671153,0.0149137,-0.6977482,-0.1161138,293,-1037,18
2460.328,5.075656,-13.30697,2.217031,-1.302446,0.0660464,-0.7712515,-0.1278317,257,-1071,84
2460.332,5.079563,-12.84729,2.442086,-0.4022259,0.108657,-0.7914915,-0.1416802,261,-1052,75
2460.336,5.083469,-12.37802,2.245761,1.216254,0.1320928,-0.7424893,-0.1597897,245,-996,41
2460.34,5.087375,-11.5209,1.824382,4.036624,0.1640507,-0.5326322,-0.1885518,309,-1016,25
2460.344,5.091281,-11.066,1.134852,6.943185,0.1587244,-0.2332929,-0.2183792,299,-1034,38
2460.348,5.095188,-11.24317,0.9289502,7.211335,0.112918,0.169377,-0.2684466,289,-1053,75
