t_native_s,t_opt_s,ax,ay,az,gx,gy,gz,mx,my,mz
2632.641,0,-2.983175,4.295198,8.044518,-0.04474111,-0.04474111,-0.005326322,-98,891,1392
2632.645,0.00390625,-3.040636,4.357447,8.039729,-0.0479369,-0.0479369,-0.004261058,-59,942,1397
2632.648,0.0078125,-3.083732,4.280833,8.058883,-0.05006743,-0.04900216,-0.007456851,-106,910,1403
2632.652,0.01171875,-3.102885,4.252102,8.049306,-0.05006743,-0.05006743,-0.01065264,-118,900,1423
2632.656,0.015625,-3.093309,4.242525,8.06846,-0.04474111,-0.04900216,-0.007456851,-82,913,1359
2632.66,0.01953125,-2.99754,4.295198,8.149862,-0.04154531,-0.05219796,-0.01065264,-88,874,1421
2632.664,0.0234375,-3.040636,4.304775,8.121132,-0.04261058,-0.04900216,-0.01065264,-115,896,1423
2632.668,0.02734375,-3.098097,4.271256,8.12592,-0.04048005,-0.0479369,-0.00958738,-75,896,1434
2632.672,0.03125,-3.107674,4.304775,8.140286,-0.03834952,-0.0479369,-0.002130529,-100,941,1377
2632.676,0.03515625,-3.026271,4.252102,8.078036,-0.03408846,-0.05219796,-0.001065264,-72,900,1375
2632.68,0.0390625,-3.064578,4.333505,8.06846,-0.0330232,-0.05113269,-0.002130529,-95,905,1411
2632.684,0.04296875,-3.050213,4.314351,8.082825,-0.03621899,-0.05006743,0.001065264,-122,925,1449
2632.688,0.046875,-3.031059,4.271256,8.073248,-0.03089267,-0.05113269,-0.003195793,-98,948,1397
2632.691,0.05078125,-3.05979,4.343082,8.121132,-0.02769688,-0.04687164,-0.00958738,-103,904,1368
2632.695,0.0546875,-3.064578,4.271256,8.130709,-0.02769688,-0.05113269,-0.01597897,-105,911,1393
2632.699,0.05859375,-3.112462,4.19943,8.121132,-0.02450108,-0.05113269,-0.02876214,-129,923,1419
2632.703,0.0625,-3.150769,4.261679,8.173804,-0.02876214,-0.05219796,-0.03089267,-85,893,1398
2632.707,0.06640625,-3.112462,4.276044,8.049306,-0.03195793,-0.06178534,-0.02024002,-114,852,1386
2632.711,0.0703125,-3.055001,4.381389,8.034941,-0.03195793,-0.0660464,-0.01597897,-61,878,1420
2632.715,0.07421875,-3.773262,4.817134,8.039729,-0.02343582,-0.05113269,-0.01278317,-69,889,1387
2632.719,0.078125,-2.925714,4.118027,8.259996,-0.06817692,-0.09374327,0.01278317,-103,906,1375
2632.723,0.08203125,-2.801216,4.237737,7.690176,-0.0330232,-0.08948221,-0.01278317,-66,889,1426
2632.727,0.0859375,-2.911349,4.46758,8.231265,-0.04687164,-0.09054748,-0.02130529,-107,891,1383
2632.73,0.08984375,-3.064578,4.424485,8.025364,-0.0660464,-0.09267801,-0.01278317,-116,949,1406
2632.734,0.09375,-3.126827,4.094085,8.063671,-0.06072007,-0.08628642,-0.01065264,-86,915,1400
2632.738,0.09765625,-3.122039,4.089296,8.226477,-0.05006743,-0.08735168,-0.02556635,-83,890,1395
2632.742,0.1015625,-2.868254,4.175488,8.12592,-0.04474111,-0.1054612,-0.02556635,-57,875,1423
2632.746,0.1054688,-2.815581,4.13718,8.135497,-0.03941478,-0.09161274,-0.02343582,-101,914,1393
2632.75,0.109375,-2.954445,4.237737,8.135497,-0.05006743,-0.08309063,-0.01917476,-62,936,1392
2632.754,0.1132812,-3.011906,4.180276,8.159439,-0.04367584,-0.07563377,-0.008522115,-111,853,1441
2632.758,0.1171875,-3.055001,4.113238,8.159439,-0.03515373,-0.07989483,-0.004261058,-121,869,1394
2632.762,0.1210938,-3.08852,4.204218,8.145074,-0.02769688,-0.07456851,-0.007456851,-115,912,1412
2632.766,0.125,-2.978387,4.185065,8.2169,-0.02876214,-0.0777643,-0.007456851,-97,926,1363
2632.77,0.1289062,-2.882619,4.161122,8.149862,-0.02450108,-0.07669904,-0.006391587,-83,863,1430
2632.773,0.1328125,-2.901772,4.156334,8.145074,-0.0181095,-0.06391587,-0.00958738,-103,878,1392
2632.777,0.1367188,-2.94008,4.290409,8.154651,-0.01704423,-0.0628506,-0.005326322,-133,909,1381
2632.781,0.140625,-2.882619,4.362235,8.212112,-0.01597897,-0.0628506,-0.003195793,-113,938,1392
2632.785,0.1445312,-2.882619,4.285621,8.09719,-0.01704423,-0.0628506,-0.00958738,-113,904,1421
2632.789,0.1484375,-2.935291,4.19943,8.106767,-0.007456851,-0.05645902,-0.02237055,-104,889,1400
2632.793,0.1523438,-2.949656,4.242525,8.044518,-0.01278317,-0.0628506,-0.02556635,-100,908,1369
2632.797,0.15625,-2.959233,4.477157,7.838616,-0.01384844,-0.06391587,-0.02450108,-58,949,1412
2632.801,0.1601562,-2.834735,4.687847,7.982268,-0.02237055,-0.0809601,-0.03089267,-95,940,1397
2632.805,0.1640625,-2.456451,4.845864,8.044518,-0.02769688,-0.09480853,-0.0628506,-113,909,1378
2632.809,0.1679688,-2.207454,5.003881,7.963115,-0.02663161,-0.08628642,-0.09480853,-80,907,1403
2632.812,0.171875,-2.255338,5.061342,7.94875,-0.03195793,-0.0777643,-0.1214401,-70,926,1407
2632.816,0.1757812,-2.557007,5.24809,7.8865,-0.03515373,-0.07456851,-0.1310275,-86,907,1398
2632.82,0.1796875,-3.078943,5.166687,7.929596,-0.04367584,-0.07137272,-0.1257012,-61,874,1412
2632.824,0.1835938,-3.241749,4.845864,8.178593,-0.04687164,-0.07563377,-0.1310275,-88,933,1406
2632.828,0.1875,-3.203442,4.314351,8.240842,-0.03834952,-0.07350325,-0.144876,-67,890,1381
2632.832,0.1914062,-3.016694,3.888183,8.384494,-0.02130529,-0.07350325,-0.165116,-59,907,1408
2632.836,0.1953125,-2.777274,3.682282,8.418013,-0.00958738,-0.07350325,-0.169377,-96,909,1381
2632.84,0.1992188,-2.715025,3.849876,8.370129,0.005326322,-0.06711166,-0.1502023,-102,871,1389
2632.844,0.203125,-2.705448,4.237737,8.274361,0.007456851,-0.05858954,-0.1299623,-106,912,1372
2632.848,0.2070312,-2.777274,4.568137,8.236054,0.01065264,-0.04261058,-0.1246359,-95,885,1393
2632.852,0.2109375,-2.8491,4.821922,8.221689,0.0149137,-0.02556635,-0.1363538,-85,906,1403
2632.855,0.2148438,-2.748544,4.687847,8.312668,0.02343582,-0.005326322,-0.1640507,-100,894,1403
2632.859,0.21875,-2.691083,4.367024,8.432378,0.0298274,0.01171791,-0.1736381,-114,919,1362
2632.863,0.2226562,-2.633622,4.012682,8.485051,0.04687164,0.02876214,-0.1832255,-116,883,1414
2632.867,0.2265625,-2.571373,3.758897,8.609549,0.06178534,0.05432849,-0.1842907,-81,915,1400
2632.871,0.2304688,-2.60968,3.706224,8.662222,0.08309063,0.09054748,-0.1789644,-74,954,1409
2632.875,0.234375,-2.667141,3.854665,8.647856,0.09267801,0.1225054,-0.1821602,-92,929,1365
2632.879,0.2382812,-2.738967,4.127604,8.590396,0.08415589,0.1576591,-0.1885518,-91,903,1448
2632.883,0.2421875,-2.863465,4.122815,8.542512,0.07882957,0.1981392,-0.2045308,-115,920,1408
2632.887,0.2460938,-3.040636,4.266467,8.662222,0.08522115,0.257794,-0.2109224,-145,933,1400
2632.891,0.25,-3.332729,4.692635,8.796297,0.01384844,0.2833603,-0.2183792,-77,900,1401
2632.895,0.2539062,-3.256114,5.032612,8.5473,-0.05645902,0.309992,-0.2311624,-99,904,1409
2632.898,0.2578125,-2.719813,5.798756,8.992621,-0.06391587,0.3547331,-0.2173139,-138,919,1407
2632.902,0.2617188,-2.375048,5.779603,8.662222,-0.3419499,0.4186489,-0.1715076,-112,925,1402
2632.906,0.265625,-2.738967,1.134852,7.369353,-0.2759035,0.5273059,-0.1874865,-116,928,1388
2632.91,0.2695312,-3.404555,-1.144428,8.446743,0.1725728,0.5443501,-0.2588593,-52,907,1395
2632.914,0.2734375,-3.524265,3.280056,9.610325,0.2428803,0.3398194,-0.294013,-112,933,1435
2632.918,0.2773438,-2.327164,7.340622,7.805097,-0.1054612,0.3462109,-0.2205097,-111,901,1407
2632.922,0.28125,-1.977611,5.832275,8.212112,-0.07350325,0.5475459,-0.2343582,-108,888,1438
2632.926,0.2851562,-2.212242,4.577714,8.987833,-0.0479369,0.5592638,-0.350472,-65,928,1432
2632.93,0.2890625,-2.293645,4.999093,8.63828,-0.07563377,0.5060006,-0.4282363,-109,937,1394
2632.934,0.2929688,-2.432509,5.78918,8.508993,-0.07882957,0.5699165,-0.42291,-74,909,1407
2632.938,0.296875,-2.810793,5.267244,8.523358,-0.1118528,0.6306365,-0.4293016,-88,877,1401
2632.941,0.3007812,-3.313575,4.58729,8.441955,-0.1352886,0.6700513,-0.4697816,-78,917,1399
2632.945,0.3046875,-3.62961,4.841076,8.734048,-0.1523328,0.680704,-0.5006743,-81,925,1430
2632.949,0.3085938,-3.313575,5.377377,8.508993,-0.2151834,0.6977482,-0.499609,-90,904,1383
2632.953,0.3125,-2.94008,5.329493,8.283938,-0.2300971,0.737163,-0.5038701,-97,881,1445
2632.957,0.3164062,-2.782062,4.860229,8.183381,-0.2332929,0.7701862,-0.5368933,-80,877,1411
2632.961,0.3203125,-2.911349,4.611232,8.145074,-0.2396845,0.7957525,-0.5667207,-57,972,1418
2632.965,0.3242188,-3.256114,4.338293,8.250419,-0.2535329,0.8106662,-0.5763081,-77,935,1371
2632.969,0.328125,-3.610456,3.936068,8.236054,-0.257794,0.8287757,-0.572047,-74,895,1415
2632.973,0.3320312,-3.801992,3.744531,8.173804,-0.2545982,0.8372978,-0.5688512,-76,898,1437
2632.977,0.3359375,-3.916914,3.643975,8.087613,-0.2492719,0.8426242,-0.5688512,-56,909,1387
2632.98,0.3398438,-4.060566,3.481169,7.972692,-0.2545982,0.8372978,-0.5624596,-125,886,1376
2632.984,0.34375,-4.180276,3.217807,7.867347,-0.2524677,0.8415589,-0.5411543,-67,879,1397
2632.988,0.3476562,-4.261679,3.064578,7.867347,-0.2471413,0.8394284,-0.5294364,-108,911,1420
2632.992,0.3515625,-4.185065,2.896984,7.829039,-0.2396845,0.8287757,-0.5347627,-93,894,1433
2632.996,0.3554688,-4.036624,2.8491,7.833828,-0.221575,0.8213189,-0.5550028,-45,922,1387
2633,0.359375,-3.792415,2.978387,7.809886,-0.205596,0.8255799,-0.5848302,-97,878,1386
2633.004,0.3632812,-3.730166,3.069367,7.752425,-0.2066613,0.8309063,-0.5954828,-120,872,1430
2633.008,0.3671875,-3.86903,3.131616,7.762002,-0.205596,0.8362326,-0.5933523,-100,901,1415
2633.012,0.3710938,-3.864241,3.078943,7.881712,-0.1949434,0.8447547,-0.592287,-72,909,1401
2633.016,0.375,-3.639187,2.753332,8.020576,-0.201335,0.8596684,-0.6402239,-88,898,1405
2633.02,0.3789062,-3.639187,2.829946,8.00621,-0.2098571,0.8713863,-0.6913566,-128,883,1405
2633.023,0.3828125,-3.773262,3.021482,7.943961,-0.1949434,0.8852347,-0.7147924,-87,922,1410
2633.027,0.3867188,-4.065354,3.150769,7.991845,-0.181095,0.8980179,-0.6988135,-111,921,1412
2633.031,0.390625,-4.410119,3.126827,7.963115,-0.165116,0.9182579,-0.644485,-75,885,1382
2633.035,0.3945312,-4.462792,3.078943,8.082825,-0.1406149,0.9363674,-0.6221144,-100,904,1448
2633.039,0.3984375,-4.304775,3.203442,8.30788,-0.1182444,0.9512811,-0.6348976,-146,913,1444
2633.043,0.4023438,-4.118027,3.533842,8.389283,-0.1161138,0.9523464,-0.6743124,-74,917,1382
2633.047,0.40625,-4.07972,4.055778,8.437167,-0.1161138,0.9704559,-0.7052051,-92,910,1415
2633.051,0.4101562,-4.266467,4.19943,8.370129,-0.1299623,0.999218,-0.6711166,-72,882,1423
2633.055,0.4140625,-4.395754,4.012682,8.312668,-0.1512675,1.018393,-0.6231797,-92,883,1403
2633.059,0.4179688,-4.697424,3.964798,8.331822,-0.1523328,1.020523,-0.5944176,-47,877,1415
2633.062,0.421875,-5.214571,4.156334,8.33661,-0.1225054,1.003479,-0.5795039,-74,846,1423
2633.066,0.4257812,-5.305551,4.371812,8.470685,-0.1139833,0.9779128,-0.5667207,-107,894,1397
2633.07,0.4296875,-5.214571,4.76925,8.398859,-0.1150486,0.9523464,-0.5773733,-116,892,1451
2633.074,0.4335938,-5.032612,5.0374,8.42759,-0.1182444,0.9502159,-0.5890912,-71,902,1423
2633.078,0.4375,-4.999093,5.061342,8.312668,-0.1257012,0.9661948,-0.5901565,-72,867,1391
2633.082,0.4414062,-4.932055,4.898537,8.130709,-0.1310275,0.9853696,-0.5933523,-73,899,1436
2633.086,0.4453125,-4.898537,4.606444,8.025364,-0.1161138,1.014132,-0.5965481,-63,903,1399
2633.09,0.4492188,-4.912902,4.582502,8.010999,-0.08415589,1.032241,-0.6167881,-83,909,1388
2633.094,0.453125,-5.118803,4.802769,8.317457,-0.07030745,1.041829,-0.644485,-82,895,1464
2633.098,0.4570312,-5.444415,5.343858,8.365341,-0.09480853,1.064199,-0.6636597,-74,898,1440
2633.102,0.4609375,-5.631162,5.315128,8.346187,-0.1310275,1.074852,-0.6657903,-127,912,1420
2633.105,0.4648438,-5.693412,5.176264,8.331822,-0.1736381,1.081243,-0.6775082,-61,935,1423
2633.109,0.46875,-5.410896,5.061342,8.154651,-0.2279666,1.083374,-0.7115966,-66,880,1387
2633.113,0.4726562,-5.453991,4.702212,8.073248,-0.2205097,1.094027,-0.7446198,-80,867,1427
2633.117,0.4765625,-5.803545,4.515464,8.250419,-0.2205097,1.096157,-0.7584683,-75,862,1390
2633.121,0.4804688,-6.402095,4.821922,8.643068,-0.2450108,1.078048,-0.7616641,-79,875,1431
2633.125,0.484375,-6.933608,5.166687,9.131485,-0.2886867,1.037568,-0.7669904,-66,887,1442
2633.129,0.4882812,-7.594408,5.305551,9.351752,-0.309992,0.958738,-0.7648599,-68,861,1443
2633.133,0.4921875,-7.714118,4.912902,9.016563,-0.3121225,0.9044095,-0.7669904,-70,909,1417
2633.137,0.4960938,-7.536947,4.295198,9.284714,-0.3398194,0.8479505,-0.7861652,-91,888,1393
2633.141,0.5,-7.225701,4.309563,9.14585,-0.3760383,0.7744472,-0.8170578,-68,902,1462
2633.145,0.5039062,-6.919243,5.032612,9.390059,-0.3121225,0.6924219,-0.8032094,-84,918,1429
2633.148,0.5078125,-6.904878,4.855441,9.332598,-0.2460761,0.6263755,-0.7126619,-63,911,1388
2633.152,0.5117188,-6.440402,4.625598,9.916783,-0.1896171,0.5432849,-0.6348976,-25,881,1389
2633.156,0.515625,-5.702988,6.071695,10.72602,-0.1629855,0.3930826,-0.6018744,-42,834,1497
2633.16,0.5195312,-4.089296,7.891289,9.916783,-0.2790993,0.2098571,-0.5688512,-109,878,1444
2633.164,0.5234375,-3.035848,7.52737,9.002198,-0.2759035,0.1821602,-0.5177185,-102,919,1424
2633.168,0.5273438,-2.944868,6.287174,9.188946,-0.2162487,0.1715076,-0.4857606,-80,876,1417
2633.172,0.53125,-3.203442,5.932832,9.241618,-0.2769688,0.1065264,-0.495348,-73,858,1431
2633.176,0.5351562,-2.547431,6.421249,8.451532,-0.3472762,0.003195793,-0.479369,-48,864,1409
2633.18,0.5390625,-1.675941,6.698976,8.298303,-0.3174488,-0.04367584,-0.4175837,-57,937,1428
2633.184,0.5429688,-1.244985,6.617573,8.734048,-0.3131877,-0.06498113,-0.3749731,-66,893,1429
2633.188,0.546875,-1.47004,6.703765,8.796297,-0.3653857,-0.09800433,-0.3600594,-55,890,1407
2633.191,0.5507812,-1.455675,5.894524,8.231265,-0.3568636,-0.1427454,-0.3281014,-98,913,1442
2633.195,0.5546875,-0.9097966,5.597643,8.231265,-0.2556635,-0.1938781,-0.3121225,-74,881,1403
2633.199,0.5585938,-0.1675941,5.851429,7.972692,-0.2034655,-0.257794,-0.3067962,-62,889,1435
2633.203,0.5625,0.5410896,6.670246,7.575254,-0.2258361,-0.2854909,-0.2897519,-69,896,1433
2633.207,0.5664062,1.197101,7.105991,7.201759,-0.2801645,-0.2684466,-0.2524677,-75,871,1433
2633.211,0.5703125,1.28808,6.646304,6.967127,-0.2812298,-0.2588593,-0.2343582,-89,889,1456
2633.215,0.5742188,1.407791,5.712565,6.550536,-0.2471413,-0.2407498,-0.2279666,-72,929,1445
2633.219,0.578125,1.249773,4.979939,7.105991,-0.1246359,-0.2173139,-0.2237055,-31,866,1437
2633.223,0.5820312,0.5889736,6.071695,8.585607,-0.03621899,-0.2897519,-0.1778992,-71,920,1436
2633.227,0.5859375,0.04309563,7.062895,8.432378,-0.06391587,-0.3717773,-0.1022654,-86,919,1413
2633.23,0.5898438,0.1915361,7.311892,7.872135,-0.03941478,-0.4165184,-0.0479369,-42,926,1443
2633.234,0.59375,0.8523358,7.086837,7.541735,0.01171791,-0.4474111,-0.0479369,-72,889,1456
2633.238,0.5976562,1.805228,6.823475,7.187393,0.01384844,-0.4751079,-0.06072007,-80,866,1448
2633.242,0.6015625,2.15957,6.473921,7.034164,-0.01597897,-0.4761732,-0.03089267,-84,926,1448
2633.246,0.6054688,1.987187,6.191405,7.216124,-0.01278317,-0.4655206,0.02024002,-9,871,1405
2633.25,0.609375,1.527501,5.932832,7.49864,0.007456851,-0.4740427,0.05432849,-70,863,1435
2633.254,0.6132812,1.106121,5.808333,7.73806,0.05432849,-0.4964132,0.06391587,-78,886,1394
2633.258,0.6171875,1.04866,6.004658,7.800309,0.1406149,-0.5496764,0.07030745,-84,928,1417
2633.262,0.6210938,1.446098,6.17704,7.934384,0.2045308,-0.5901565,0.09906959,-59,884,1432
2633.266,0.625,1.642422,6.397307,7.896077,0.2364887,-0.624245,0.1438107,-48,902,1424
2633.27,0.6289062,1.776498,6.493075,7.876923,0.2545982,-0.6593987,0.1981392,-86,866,1430
2633.273,0.6328125,1.594538,6.373365,7.867347,0.2790993,-0.6838998,0.2609898,-58,880,1420
2633.277,0.6367188,1.493982,6.311116,7.958326,0.3174488,-0.7105314,0.298274,-67,896,1394
2633.281,0.640625,1.532289,6.167463,7.8865,0.3398194,-0.7435546,0.334493,-15,870,1436
2633.285,0.6445312,1.675941,5.889736,7.762002,0.3643204,-0.7605988,0.3717773,-96,847,1411
2633.289,0.6484375,1.977611,5.477933,7.5561,0.4207795,-0.777643,0.4165184,-73,876,1419
2633.293,0.6523438,2.149993,5.281609,7.422025,0.4665858,-0.7755125,0.4495416,-60,909,1432
2633.297,0.65625,2.212242,5.133168,7.369353,0.5113269,-0.7627293,0.4783037,-49,878,1443
2633.301,0.6601562,2.226608,5.085284,7.354988,0.5603291,-0.7456851,0.5102617,-52,907,1433
2633.305,0.6640625,2.111686,5.090073,7.369353,0.6114618,-0.7137272,0.5550028,-53,898,1407
2633.309,0.6679688,2.015918,5.123592,7.383718,0.6327671,-0.6988135,0.5848302,-44,894,1418
2633.312,0.671875,2.011129,5.185841,7.455544,0.6519418,-0.6753777,0.6008091,-42,884,1393
2633.316,0.6757812,2.063802,5.109226,7.398083,0.6870956,-0.6530071,0.6103965,-74,876,1437
2633.32,0.6796875,2.102109,5.046977,7.426814,0.7563377,-0.5901565,0.6455502,-82,925,1369
2633.324,0.6835938,2.063802,4.750096,7.493851,0.8170578,-0.5273059,0.6945524,-65,903,1365
2633.328,0.6875,2.035071,4.400543,7.493851,0.8873653,-0.4719121,0.7499462,-43,895,1394
2633.332,0.6914062,1.934515,4.280833,7.541735,0.9779128,-0.4282363,0.7968178,-90,906,1416
2633.336,0.6953125,1.896208,4.448427,7.64708,1.098288,-0.3728426,0.8309063,-72,869,1401
2633.34,0.6992188,1.833958,4.850653,7.872135,1.165399,-0.3259709,0.8554073,-65,904,1381
2633.344,0.703125,1.61848,5.243302,7.838616,1.209075,-0.2759035,0.8948221,-83,841,1452
2633.348,0.7070312,1.374272,5.57849,8.058883,1.255947,-0.2300971,0.9470201,-83,862,1432
2633.352,0.7109375,0.8858546,5.951985,8.470685,1.314536,-0.1970739,1.02798,-85,918,1376
2633.355,0.7148438,0.4501099,6.291962,8.901642,1.345429,-0.1960087,1.08657,-57,903,1409
2633.359,0.71875,-0.04309563,6.62715,9.303868,1.343298,-0.1970739,1.145159,-62,905,1415
2633.363,0.7226562,-0.6033388,7.096414,9.873688,1.332646,-0.2311624,1.206945,-81,900,1391
2633.367,0.7265625,-1.268927,7.996634,10.47224,1.275122,-0.298274,1.302818,-121,918,1427
2633.371,0.7304688,-1.810016,8.556877,10.74039,1.201618,-0.3557983,1.384844,-69,894,1415
2633.375,0.734375,-2.221819,8.810662,10.87446,1.111071,-0.4058658,1.478587,-66,866,1438
2633.379,0.7382812,-2.494758,8.590396,10.9846,1.033307,-0.4655206,1.562743,-68,853,1426
2633.383,0.7421875,-2.600103,8.087613,11.05642,0.9598033,-0.5400891,1.63092,-65,925,1394
2633.387,0.7460938,-2.509123,7.599196,10.85052,0.86606,-0.6348976,1.696966,-58,909,1394
2633.391,0.75,-2.451662,7.254431,10.69729,0.7904262,-0.6934871,1.734251,-47,898,1420
2633.395,0.7539062,-2.375048,6.995857,10.42914,0.7190535,-0.7520767,1.768339,-83,891,1458
2633.398,0.7578125,-2.269703,6.521805,10.10832,0.6625945,-0.7925567,1.784318,-94,929,1398
2633.402,0.7617188,-2.183512,6.019023,9.868899,0.6061355,-0.8319715,1.774731,-77,907,1392
2633.406,0.765625,-2.078167,5.6982,9.706094,0.5709817,-0.8554073,1.754491,-64,837,1430
2633.41,0.7695312,-2.121263,5.544971,9.672575,0.5390238,-0.8756474,1.733185,-77,918,1392
2633.414,0.7734375,-2.135628,5.430049,9.672575,0.5113269,-0.8894958,1.708684,-86,911,1396
2633.418,0.7773438,-2.260126,5.477933,9.749189,0.4868258,-0.9086706,1.682053,-71,889,1376
2633.422,0.78125,-2.422932,5.535394,9.753978,0.46339,-0.9289106,1.663943,-65,918,1413
2633.426,0.7851562,-2.552219,5.612009,9.80665,0.4442153,-0.9523464,1.646899,-76,909,1419
2633.43,0.7890625,-2.566584,5.736507,9.701305,0.4218447,-0.9683254,1.629855,-60,898,1398
2633.434,0.7929688,-2.533065,5.755661,9.586383,0.3973436,-0.9875001,1.611745,-75,864,1373
2633.438,0.796875,-2.557007,5.693412,9.538499,0.3771036,-0.9896307,1.59257,-81,886,1417
2633.441,0.8007812,-2.557007,5.583278,9.490615,0.3589941,-0.9906959,1.573396,-97,936,1373
2633.445,0.8046875,-2.624045,5.430049,9.433155,0.3494067,-0.974717,1.556351,-115,933,1420
2633.449,0.8085938,-2.815581,5.382165,9.399636,0.3589941,-0.9683254,1.536111,-86,874,1414
2633.453,0.8125,-2.96881,5.363012,9.260772,0.3834952,-0.9651296,1.523328,-60,893,1399
2633.457,0.8164062,-3.102885,5.382165,9.184158,0.4079963,-0.9534117,1.522263,-86,922,1407
2633.461,0.8203125,-3.098097,5.506664,9.203311,0.4261058,-0.9566075,1.522263,-104,861,1418
2633.465,0.8242188,-3.284845,5.889736,9.284714,0.4293016,-0.9534117,1.514806,-96,894,1384
2633.469,0.828125,-3.552995,6.196194,9.47625,0.4175837,-0.9544769,1.502023,-56,850,1409
2633.473,0.8320312,-4.01747,6.651092,9.725247,0.3952131,-0.9534117,1.504153,-76,930,1420
2633.477,0.8359375,-4.55856,6.98628,10.11311,0.386691,-0.9768475,1.524393,-112,948,1401
2633.48,0.8398438,-5.133168,7.264008,10.53449,0.3771036,-1.034372,1.575526,-101,863,1381
2633.484,0.84375,-5.434838,7.536947,10.84095,0.3621899,-1.099353,1.61068,-79,868,1375
2633.488,0.8476562,-5.746084,7.924807,11.03248,0.3334278,-1.16753,1.649029,-117,923,1406
2633.492,0.8515625,-6.066907,8.279149,11.15219,0.3014698,-1.229315,1.696966,-79,886,1367
2633.496,0.8554688,-6.29675,8.451532,11.10431,0.2673814,-1.317732,1.783253,-93,857,1386
2633.5,0.859375,-6.282385,8.18817,11.24796,0.2599245,-1.39017,1.850364,-83,881,1405
2633.504,0.8632812,-6.47871,7.733271,10.96544,0.2279666,-1.473261,1.899366,-85,898,1429
2633.508,0.8671875,-6.435614,7.192182,10.50097,0.1960087,-1.532916,1.931324,-127,895,1371
2633.512,0.8710938,-6.272808,6.579266,9.739612,0.2034655,-1.59044,1.943042,-78,895,1381
2633.516,0.875,-6.062119,5.78918,9.251195,0.237554,-1.63092,1.935585,-113,900,1403
2633.52,0.8789062,-5.746084,5.358223,8.772355,0.2471413,-1.650095,1.922802,-117,904,1399
2633.523,0.8828125,-5.516241,5.042189,8.355764,0.2588593,-1.654356,1.889779,-122,937,1359
2633.527,0.8867188,-5.473145,4.960786,7.934384,0.273773,-1.636246,1.843973,-108,903,1352
2633.531,0.890625,-5.655104,5.080496,7.790732,0.2790993,-1.601092,1.768339,-147,846,1419
2633.535,0.8945312,-5.928043,5.176264,7.651869,0.273773,-1.578722,1.715076,-112,919,1414
2633.539,0.8984375,-6.033388,5.233725,7.599196,0.2673814,-1.559547,1.667139,-105,963,1380
2633.543,0.9023438,-6.29675,5.24809,7.637503,0.2514024,-1.542503,1.621332,-83,919,1382
2633.547,0.90625,-6.493075,5.281609,7.541735,0.201335,-1.526524,1.559547,-123,928,1403
2633.551,0.9101562,-6.593631,5.295974,7.40766,0.1661813,-1.510545,1.520132,-110,953,1382
2633.555,0.9140625,-6.713341,5.319916,7.331045,0.149137,-1.482848,1.483913,-99,946,1369
2633.559,0.9179688,-6.823475,5.137957,7.331045,0.1310275,-1.461543,1.44876,-131,936,1352
2633.562,0.921875,-7.029376,4.692635,7.297527,0.1107875,-1.431715,1.402953,-128,915,1412
2633.566,0.9257812,-7.16824,4.285621,7.149086,0.1267665,-1.406149,1.359277,-115,959,1371
2633.57,0.9296875,-7.445967,4.161122,7.158663,0.1715076,-1.380583,1.311341,-80,923,1389
2633.574,0.9335938,-7.671022,4.103662,7.249643,0.201335,-1.370995,1.278317,-116,915,1383
2633.578,0.9375,-7.781155,3.787627,6.890512,0.2450108,-1.357147,1.236772,-153,931,1396
2633.582,0.9414062,-7.785944,3.442862,6.579266,0.2897519,-1.318797,1.1899,-132,956,1400
2633.586,0.9453125,-7.896077,3.284845,6.579266,0.3387541,-1.292166,1.135572,-116,920,1363
2633.59,0.9492188,-8.078036,3.270479,6.526594,0.3632552,-1.275122,1.08657,-140,937,1366
2633.594,0.953125,-8.475474,3.222595,6.397307,0.3888215,-1.264469,1.017328,-147,892,1366
2633.598,0.9570312,-8.681375,3.021482,6.397307,0.4016047,-1.255947,0.9438243,-156,990,1385
2633.602,0.9609375,-8.729259,2.825158,6.133945,0.406931,-1.22825,0.8596684,-116,956,1358
2633.605,0.9648438,-8.748413,2.485181,5.899313,0.4079963,-1.201618,0.773382,-129,939,1381
2633.609,0.96875,-8.75799,2.217031,5.626374,0.4048005,-1.159008,0.6743124,-95,948,1390
2633.613,0.9726562,-8.935161,2.082955,5.564125,0.3845605,-1.119593,0.6061355,-135,991,1420
2633.617,0.9765625,-9.050082,1.862689,5.3678,0.3451457,-1.073787,0.5294364,-141,960,1328
2633.621,0.9804688,-9.045294,1.632846,5.109226,0.3217099,-1.035437,0.4378237,-76,935,1373
2633.625,0.984375,-8.930372,1.584961,4.659116,0.2801645,-0.9672601,0.3249057,-99,949,1360
2633.629,0.9882812,-8.724471,1.575385,4.400543,0.2258361,-0.9033442,0.257794,-93,980,1420
2633.633,0.9921875,-8.623914,1.517924,4.13718,0.1533981,-0.8277105,0.1992044,-137,968,1354
2633.637,0.9960938,-8.647856,1.503559,4.012682,0.07350325,-0.7403588,0.1459412,-101,966,1376
2633.641,1,-8.911219,1.465251,3.979163,-0.03728426,-0.6221144,0.07989483,-74,946,1385
2633.645,1.003906,-9.08839,1.527501,4.012682,-0.1182444,-0.531567,0.03621899,-133,969,1411
2633.648,1.007812,-9.299079,1.584961,4.165911,-0.1960087,-0.4484763,0.005326322,-107,984,1361
2633.652,1.011719,-9.658209,1.517924,4.151546,-0.2748382,-0.370712,-0.01384844,-89,961,1336
2633.656,1.015625,-9.907206,1.388637,4.118027,-0.370712,-0.2673814,-0.02876214,-137,956,1410
2633.66,1.019531,-9.988609,1.106121,3.964798,-0.4239752,-0.2024002,-0.05326322,-157,993,1403
2633.664,1.023438,-9.974244,0.9050082,3.916914,-0.4783037,-0.1352886,-0.09161274,-131,978,1341
2633.668,1.027344,-10.10353,0.7709329,3.830723,-0.531567,-0.06817692,-0.1214401,-79,960,1368
2633.672,1.03125,-10.22324,0.5123592,3.763685,-0.5731123,0.01065264,-0.1438107,-143,994,1411
2633.676,1.035156,-10.27591,0.225055,3.830723,-0.6093313,0.1107875,-0.1683118,-106,979,1385
2633.68,1.039062,-10.32859,0.06224924,3.955221,-0.6103965,0.165116,-0.1981392,-114,1013,1391
2633.684,1.042969,-10.26634,0.1628057,4.094085,-0.6093313,0.2141182,-0.2439456,-131,953,1362
2633.688,1.046875,-10.21366,0.1723825,4.031836,-0.6072007,0.2748382,-0.2886867,-118,964,1405
2633.691,1.050781,-10.43393,-2.327164,1.16837,-0.1384844,0.4207795,-0.4186489,-127,948,1354
2633.695,1.054688,-10.51055,-3.715801,2.418144,-0.1331581,0.5933523,-0.7467504,-125,990,1362
2633.699,1.058594,-12.63181,-2.987964,0.8092402,-0.1043959,0.7126619,-1.00561,-132,942,1369
2633.703,1.0625,-11.16177,-0.2154781,3.878607,-0.1043959,0.7584683,-1.20801,-114,919,1375
2633.707,1.066406,-4.932055,7.790732,7.28795,0.003195793,0.5006743,-1.06633,-135,1021,1376
2633.711,1.070312,0.3639187,7.690176,7.038953,-0.1054612,0.5613944,-0.9171927,-84,956,1374
2633.715,1.074219,5.650316,7.723695,10.97981,-0.2311624,0.7382283,-1.140898,-101,956,1372
2633.719,1.078125,11.33894,8.973468,12.34929,-0.3408846,0.7020093,-1.645834,-121,955,1382
2633.723,1.082031,18.20072,12.18649,10.45787,-0.5805691,0.7659251,-2.474609,-110,975,1396
2633.727,1.085938,18.04749,14.55196,8.441955,-0.9885654,1.205879,-3.026416,-111,954,1342
2633.73,1.089844,10.20409,10.16578,6.105214,-1.302818,1.818406,-3.308711,-101,970,1377
2633.734,1.09375,-3.332729,0.4788403,8.777143,-1.06846,2.385127,-3.1404,-147,971,1346
2633.738,1.097656,-18.31085,-6.253655,17.11854,-0.4676511,2.348908,-2.483131,-103,945,1401
2633.742,1.101562,-19.34994,-2.011129,17.24304,0.2247708,1.640507,-1.786448,-116,972,1377
2633.746,1.105469,-14.48492,5.884948,14.25987,0.6338323,1.262338,-1.441303,-139,992,1369
2633.75,1.109375,-9.217676,11.18571,14.00129,0.5134575,1.346494,-1.353951,-155,968,1395
2633.754,1.113281,-9.08839,11.44428,15.25585,0.1012001,1.459412,-1.21014,-119,973,1361
2633.758,1.117188,-10.96544,7.532158,16.12734,-0.02876214,1.303884,-0.9683254,-97,968,1380
2633.762,1.121094,-10.08917,4.826711,14.87757,-0.004261058,1.001349,-0.8767126,-122,912,1376
2633.766,1.125,-5.717354,4.520253,12.08593,0.1629855,0.7424893,-0.9811085,-110,946,1387
2633.77,1.128906,0.8236054,4.750096,8.039729,0.350472,0.6817692,-1.144094,-113,959,1362
2633.773,1.132812,3.409343,4.898537,6.473921,0.3834952,0.7520767,-1.078048,-111,959,1414
2633.777,1.136719,3.227384,5.544971,5.018247,0.350472,0.8191884,-0.9235843,-119,946,1359
2633.781,1.140625,1.685518,6.766014,4.022259,0.2929477,0.9139969,-0.8490158,-137,988,1392
2633.785,1.144531,-0.3639187,8.384494,3.481169,0.1747034,1.082309,-0.9853696,-136,953,1384
2633.789,1.148438,-0.9289502,8.724471,3.399766,0.01704423,1.234641,-1.105744,-95,970,1382
2633.793,1.152344,-0.8236054,8.2169,3.615245,-0.02663161,1.366734,-1.101483,-96,950,1358
2633.797,1.15625,-1.077391,7.431602,4.036624,-0.008522115,1.444499,-0.9725864,-113,946,1390
2633.801,1.160156,-2.087744,7.010222,5.051766,-0.05432849,1.527589,-0.8181231,-107,947,1336
2633.805,1.164062,-3.29921,7.570466,5.951985,-0.05965481,1.591505,-0.6902914,-101,985,1368
2633.809,1.167969,-4.539406,7.656657,6.909666,-0.03941478,1.61068,-0.644485,-133,953,1346
2633.812,1.171875,-5.353435,7.149086,7.915231,-0.06711166,1.629855,-0.592287,-145,947,1380
2633.816,1.175781,-5.372589,6.29675,8.542512,-0.08735168,1.600027,-0.5273059,-167,1020,1351
2633.82,1.179688,-5.018247,5.300762,8.753201,-0.07669904,1.541438,-0.4697816,-98,943,1363
2633.824,1.183594,-4.544195,5.133168,9.097966,-0.05432849,1.506284,-0.4367584,-118,950,1387
2633.828,1.1875,-4.252102,5.453991,9.672575,-0.02130529,1.451955,-0.3962784,-88,957,1415
2633.832,1.191406,-4.31914,5.659893,10.02213,-0.05113269,1.409345,-0.366451,-119,960,1371
2633.836,1.195312,-4.979939,5.315128,10.817,-0.01278317,1.325189,-0.3440804,-105,972,1362
2633.84,1.199219,-5.525817,4.922479,10.93192,0.006391587,1.215467,-0.3526025,-125,953,1384
2633.844,1.203125,-5.583278,4.577714,10.39562,0.004261058,1.105744,-0.3739078,-121,909,1422
2633.848,1.207031,-6.588843,6.282385,12.72279,-0.01065264,0.9917612,-0.4133226,-126,955,1382
2633.852,1.210938,-9.543288,11.79863,12.4307,-1.25062,0.8074704,-0.6072007,-117,932,1391
2633.855,1.214844,-8.001422,7.570466,7.096414,-1.067395,0.813862,-0.608266,-82,925,1395
2633.859,1.21875,-5.602432,2.844312,9.931148,-0.551807,0.753142,-0.6370281,-139,934,1346
2633.863,1.222656,-3.56736,5.094861,9.830592,-0.5209143,0.4644553,-0.6327671,-148,1002,1382
2633.867,1.226562,-2.87783,8.829816,6.943185,-0.3781689,0.3398194,-0.3366236,-129,941,1399
2633.871,1.230469,-3.792415,7.714118,7.632715,-0.3792341,0.4719121,-0.1065264,-106,944,1385
2633.875,1.234375,-4.55856,4.668693,8.532935,-0.5773733,0.4932174,-0.0809601,-144,967,1396
2633.879,1.238281,-4.625598,3.126827,7.934384,-0.4612595,0.3973436,-0.185356,-131,929,1370
2633.883,1.242188,-3.428497,4.237737,8.379706,-0.2439456,0.2876214,-0.3036004,-64,968,1373
2633.887,1.246094,-2.537854,5.267244,8.154651,-0.2695119,0.2471413,-0.3195793,-134,942,1416
2633.891,1.25,-2.39899,5.746084,7.939173,-0.3025351,0.2450108,-0.2833603,-101,975,1387
2633.895,1.253906,-3.035848,6.023811,8.111555,-0.2822951,0.2173139,-0.2173139,-111,953,1381
2633.898,1.257812,-4.309563,6.133945,7.694964,-0.241815,0.1619202,-0.1459412,-122,940,1377
2633.902,1.261719,-4.620809,5.961562,7.723695,-0.1981392,0.1406149,-0.1171791,-130,976,1408
2633.906,1.265625,-4.252102,5.72693,7.599196,-0.1672465,0.1203749,-0.1193096,-83,963,1389
2633.91,1.269531,-3.347094,5.674258,7.393295,-0.1555286,0.1118528,-0.1161138,-120,986,1354
2633.914,1.273438,-2.509123,5.535394,7.302315,-0.1406149,0.112918,-0.1097222,-99,938,1370
2633.918,1.277344,-2.432509,5.645528,7.474698,-0.1193096,0.1139833,-0.0958738,-105,944,1422
2633.922,1.28125,-2.911349,5.851429,7.565677,-0.1235707,0.1161138,-0.06924219,-167,906,1398
2633.926,1.285156,-3.462016,5.626374,7.661445,-0.1235707,0.1065264,-0.0330232,-112,949,1392
2633.93,1.289062,-3.859453,5.085284,7.728483,-0.1075917,0.08841695,-0.02343582,-119,943,1352
2633.934,1.292969,-3.926491,4.912902,7.752425,-0.06817692,0.06498113,-0.0298274,-158,951,1385
2633.938,1.296875,-3.725378,5.080496,7.900865,-0.02663161,0.04900216,-0.02663161,-131,973,1404
2633.941,1.300781,-3.438074,5.252878,7.838616,-0.003195793,0.04261058,-0.00958738,-130,971,1348
2633.945,1.304688,-3.126827,5.272032,7.699753,0.001065264,0.03515373,0.0149137,-93,904,1363
2633.949,1.308594,-3.040636,5.032612,7.661445,0.007456851,0.02130529,0.02769688,-101,955,1402
2633.953,1.3125,-3.145981,5.090073,7.752425,0.02663161,0.0181095,0.02450108,-89,929,1393
2633.957,1.316406,-3.41892,5.12838,7.929596,0.05113269,0.01171791,0.03089267,-137,954,1383
2633.961,1.320312,-3.639187,4.955997,7.915231,0.06178534,-0.004261058,0.04687164,-118,929,1361
2633.965,1.324219,-3.596091,4.707,7.694964,0.08735168,-0.01704423,0.05965481,-95,929,1389
2633.969,1.328125,-3.394978,4.644751,7.675811,0.1225054,-0.02450108,0.05752428,-116,946,1359
2633.973,1.332031,-3.112462,4.831499,7.642292,0.1502023,-0.02450108,0.05645902,-125,970,1395
2633.977,1.335938,-2.925714,5.013458,7.599196,0.1544633,-0.0149137,0.0660464,-114,956,1366
2633.98,1.339844,-2.964022,5.051766,7.627926,0.1533981,-0.002130529,0.09480853,-117,906,1426
2633.984,1.34375,-3.064578,4.908113,7.718906,0.1555286,-0.006391587,0.1001349,-147,922,1392
2633.988,1.347656,-3.241749,4.865018,7.613561,0.1672465,-0.01384844,0.09374327,-142,958,1334
2633.992,1.351562,-3.236961,4.88896,7.723695,0.1842907,-0.01917476,0.08735168,-92,946,1403
2633.996,1.355469,-3.150769,4.850653,7.838616,0.2045308,-0.0181095,0.0809601,-100,948,1383
2634,1.359375,-3.169923,4.941632,7.876923,0.2162487,-0.02769688,0.09267801,-94,942,1410
2634.004,1.363281,-3.122039,4.955997,7.64708,0.2183792,-0.03941478,0.1033307,-93,938,1362
2634.008,1.367188,-2.844312,5.018247,7.37893,0.2173139,-0.04474111,0.09800433,-122,905,1376
2634.012,1.371094,-2.691083,5.372589,7.134721,0.2066613,-0.02769688,0.07456851,-114,907,1377
2634.016,1.375,-2.600103,5.640739,7.235277,0.2002697,-0.02450108,0.06924219,-110,944,1404
2634.02,1.378906,-2.710236,5.774814,7.149086,0.1768339,-0.0298274,0.07456851,-129,971,1394
2634.023,1.382812,-2.829946,5.621585,7.201759,0.1533981,-0.02024002,0.07882957,-136,936,1369
2634.027,1.386719,-3.083732,5.27682,7.307103,0.1342233,-0.0181095,0.07563377,-129,913,1417
2634.031,1.390625,-3.174711,5.233725,7.340622,0.1278317,-0.02876214,0.07137272,-129,915,1374
2634.035,1.394531,-3.011906,5.343858,7.43639,0.1203749,-0.03834952,0.06072007,-81,984,1351
2634.039,1.398438,-2.82037,5.449203,7.393295,0.1171791,-0.04580637,0.04900216,-106,947,1387
2634.043,1.402344,-2.896984,5.415684,7.374141,0.1097222,-0.03728426,0.04261058,-141,918,1394
2634.047,1.40625,-2.983175,5.214571,7.43639,0.0958738,-0.0479369,0.05113269,-121,954,1385
2634.051,1.410156,-3.05979,5.003881,7.201759,0.0777643,-0.05965481,0.05006743,-86,940,1353
2634.055,1.414062,-3.074155,4.932055,7.307103,0.0660464,-0.05965481,0.02556635,-80,949,1367
2634.059,1.417969,-3.045425,5.114015,7.469909,0.06072007,-0.07137272,-0.004261058,-111,940,1386
2634.062,1.421875,-3.069367,5.228936,7.493851,0.04900216,-0.08628642,-0.00958738,-131,952,1389
2634.066,1.425781,-3.117251,5.185841,7.503428,0.03834952,-0.09800433,-0.01384844,-146,977,1351
2634.07,1.429688,-3.050213,5.066131,7.484274,0.02024002,-0.1150486,-0.02663161,-101,952,1369
2634.074,1.433594,-2.973598,4.936844,7.244854,-0.007456851,-0.1416802,-0.05965481,-127,922,1379
2634.078,1.4375,-2.748544,4.946421,7.010222,-0.03728426,-0.1470065,-0.08415589,-126,962,1372
2634.082,1.441406,-2.523489,5.15711,6.847417,-0.07030745,-0.1320928,-0.1075917,-96,935,1369
2634.086,1.445312,-2.221819,5.410896,6.785168,-0.1001349,-0.1118528,-0.128897,-118,912,1403
2634.09,1.449219,-2.293645,5.798756,6.924031,-0.128897,-0.08415589,-0.1406149,-100,942,1395
2634.094,1.453125,-2.700659,6.071695,7.04853,-0.149137,-0.05645902,-0.128897,-136,945,1389
2634.098,1.457031,-2.964022,5.81791,7.115567,-0.1704423,-0.04154531,-0.1097222,-91,957,1355
2634.102,1.460938,-3.007117,5.377377,7.187393,-0.1938781,-0.01917476,-0.1033307,-105,950,1339
2634.105,1.464844,-2.987964,4.994305,7.321469,-0.205596,-0.01171791,-0.1182444,-111,940,1380
2634.109,1.46875,-2.858677,4.702212,7.441179,-0.2151834,-0.0330232,-0.149137,-114,952,1386
2634.113,1.472656,-2.695871,4.635174,7.350199,-0.2343582,-0.04048005,-0.1661813,-131,962,1351
2634.117,1.476562,-2.504335,4.67827,7.422025,-0.2652508,-0.03408846,-0.1896171,-118,969,1384
2634.121,1.480469,-2.341529,4.735731,7.359776,-0.2929477,-0.03834952,-0.2226403,-139,937,1380
2634.125,1.484375,-2.470816,5.003881,7.31668,-0.3163835,-0.04048005,-0.2599245,-110,926,1402
2634.129,1.488281,-2.614468,5.228936,7.402872,-0.3355583,-0.0298274,-0.2727077,-95,907,1374
2634.133,1.492188,-2.825158,5.334281,7.388506,-0.3515373,-0.0298274,-0.273773,-93,953,1385
2634.137,1.496094,-3.069367,5.315128,7.388506,-0.3739078,-0.03834952,-0.2769688,-126,922,1365
2634.141,1.5,-2.949656,5.324704,7.187393,-0.3994742,-0.05219796,-0.2918825,-78,960,1415
2634.145,1.503906,-2.94008,5.425261,7.153875,-0.4101268,-0.05113269,-0.3057309,-148,959,1406
2634.148,1.507812,-2.777274,5.511452,7.173028,-0.427171,-0.04048005,-0.3163835,-90,952,1337
2634.152,1.511719,-2.777274,5.60722,7.326257,-0.4452805,-0.03195793,-0.3153183,-100,966,1412
2634.156,1.515625,-2.896984,5.640739,7.278373,-0.4729774,-0.002130529,-0.309992,-157,986,1388
2634.16,1.519531,-3.093309,5.592855,7.388506,-0.4974785,0.00958738,-0.298274,-115,955,1381
2634.164,1.523438,-3.29921,5.363012,7.402872,-0.519849,-0.003195793,-0.2886867,-118,959,1380
2634.168,1.527344,-3.337517,5.114015,7.350199,-0.5368933,-0.02024002,-0.294013,-118,927,1382
2634.172,1.53125,-2.916138,5.329493,7.129933,-0.5581986,-0.04687164,-0.3355583,-119,948,1406
2634.176,1.535156,-2.633622,5.813122,7.04853,-0.5805691,-0.05432849,-0.3717773,-112,962,1371
2634.18,1.539062,-2.595315,6.14831,7.000646,-0.6135923,-0.05006743,-0.3802994,-112,914,1340
2634.184,1.542969,-2.801216,6.033388,7.283161,-0.644485,-0.0330232,-0.370712,-151,970,1366
2634.188,1.546875,-3.394978,5.343858,7.714118,-0.6881608,-0.04154531,-0.3494067,-114,949,1373
2634.191,1.550781,-3.653552,4.989516,7.752425,-0.6956177,-0.0777643,-0.3472762,-115,961,1382
2634.195,1.554688,-3.586514,4.841076,7.781155,-0.684965,-0.1182444,-0.3589941,-99,912,1402
2634.199,1.558594,-3.337517,5.018247,7.742848,-0.6753777,-0.1395496,-0.3717773,-130,906,1379
2634.203,1.5625,-2.738967,5.166687,7.795521,-0.684965,-0.144876,-0.3888215,-86,947,1414
2634.207,1.566406,-2.509123,5.401319,7.52737,-0.6998787,-0.149137,-0.3888215,-140,950,1359
2634.211,1.570312,-2.528277,5.027823,7.805097,-0.7467504,-0.1576591,-0.3930826,-84,967,1373
2634.215,1.574219,-2.868254,4.793192,7.785944,-0.7552725,-0.1683118,-0.4005394,-117,932,1386
2634.219,1.578125,-3.184288,4.64954,7.551312,-0.7723167,-0.1949434,-0.4111921,-120,958,1355
2634.223,1.582031,-3.102885,4.893748,7.335834,-0.8245147,-0.2269013,-0.4399542,-110,935,1357
2634.227,1.585938,-2.504335,5.602432,7.07726,-0.8522115,-0.2556635,-0.4868258,-109,887,1412
2634.23,1.589844,-1.963245,6.210559,6.794744,-0.9182579,-0.2684466,-0.5347627,-109,916,1385
2634.234,1.59375,-1.556231,6.722918,7.005434,-1.003479,-0.2439456,-0.5709817,-107,963,1383
2634.238,1.597656,-2.111686,6.995857,7.149086,-1.06846,-0.2514024,-0.5645902,-69,989,1374
2634.242,1.601562,-3.1795,6.545747,7.627926,-1.176052,-0.2482066,-0.5273059,-87,949,1393
2634.246,1.605469,-3.682282,5.971139,7.455544,-1.216532,-0.257794,-0.479369,-115,909,1399
2634.25,1.609375,-3.653552,6.081272,6.900089,-1.195227,-0.2450108,-0.4580637,-105,992,1353
2634.254,1.613281,-3.069367,5.995081,8.145074,-1.10681,-0.2545982,-0.4484763,-98,909,1367
2634.258,1.617188,-3.031059,5.075708,8.121132,-1.101483,-0.2354234,-0.4005394,-126,955,1362
2634.262,1.621094,-3.05979,3.303998,8.777143,-1.054612,-0.1683118,-0.3110572,-100,932,1384
2634.266,1.625,-4.094085,1.556231,9.083601,-0.9374327,-0.1150486,-0.3004046,-150,979,1361
2634.27,1.628906,-6.066907,-0.6033388,10.23282,-0.7360977,-0.1587244,-0.2790993,-44,1003,1363
2634.273,1.632812,-5.305551,-0.9050082,9.279926,-0.535828,-0.1960087,-0.3004046,-77,914,1420
2634.277,1.636719,-3.193865,1.944092,8.192958,-0.314253,-0.1778992,-0.3217099,-120,913,1402
2634.281,1.640625,-2.164358,4.553772,8.623914,-0.2194445,-0.1725728,-0.2332929,-112,947,1333
2634.285,1.644531,-3.198653,4.271256,9.131485,-0.40267,-0.05965481,-0.0958738,-80,924,1353
2634.289,1.648438,-3.035848,2.734178,8.45632,-0.427171,-0.02237055,-0.04367584,-92,969,1412
2634.293,1.652344,-2.949656,1.900996,8.671798,-0.2567287,-0.04048005,-0.09054748,-100,927,1393
2634.297,1.65625,-3.246537,2.896984,8.714894,-0.1278317,-0.05752428,-0.1789644,-95,1008,1365
2634.301,1.660156,-3.825934,3.892972,8.532935,-0.1033307,0.003195793,-0.221575,-56,928,1394
2634.305,1.664062,-4.194641,2.887407,8.973468,-0.1150486,0.0777643,-0.2364887,-48,954,1394
2634.309,1.667969,-3.361459,2.403778,8.623914,-0.06498113,0.0628506,-0.1864213,-128,903,1371
2634.312,1.671875,-2.762909,2.825158,8.566454,0.04474111,0.05006743,-0.1257012,-114,911,1376
2634.316,1.675781,-2.686294,4.175488,8.719682,0.05219796,0.08522115,-0.06178534,-113,921,1359
2634.32,1.679688,-3.05979,3.835511,8.676587,0.007456851,0.1320928,-0.04154531,-104,939,1389
2634.324,1.683594,-3.337517,3.552995,8.475474,0.01917476,0.1523328,-0.05432849,-119,939,1361
2634.328,1.6875,-3.366248,3.758897,8.494627,0.1065264,0.1512675,-0.0628506,-125,977,1387
2634.332,1.691406,-3.198653,4.750096,8.5473,0.1576591,0.165116,-0.08309063,-77,999,1343
2634.336,1.695312,-3.256114,5.00867,8.504204,0.1310275,0.1821602,-0.07456851,-70,934,1396
2634.34,1.699219,-3.213019,4.874595,8.609549,0.1235707,0.2034655,-0.05858954,-115,979,1383
2634.344,1.703125,-3.160346,4.458003,8.796297,0.144876,0.2151834,-0.05752428,-130,935,1373
2634.348,1.707031,-3.112462,4.323928,8.724471,0.1992044,0.2258361,-0.1001349,-44,959,1350
2634.352,1.710938,-3.184288,4.592079,8.647856,0.2386192,0.2514024,-0.1012001,-138,912,1381
2634.355,1.714844,-3.136404,4.893748,8.75799,0.2471413,0.2876214,-0.0809601,-98,938,1385
2634.359,1.71875,-3.078943,5.018247,8.743624,0.237554,0.3217099,-0.07030745,-108,975,1352
2634.363,1.722656,-3.715801,5.032612,8.422801,0.2045308,0.3984089,-0.1683118,-100,953,1331
2634.367,1.726562,-3.193865,4.702212,9.059659,0.3057309,0.4921522,-0.1075917,-124,911,1406
2634.371,1.730469,-0.5889736,3.394978,9.773131,0.4644553,0.4932174,-0.1193096,-98,901,1406
2634.375,1.734375,1.024718,4.616021,9.56723,0.459129,0.4942827,-0.2833603,-112,936,1367
2634.379,1.738281,-1.096544,5.602432,8.556877,0.3259709,0.6498113,-0.3174488,-115,976,1364
2634.383,1.742188,-3.399766,3.620033,9.251195,0.2972088,0.9640643,-0.1363538,-92,930,1390
2634.387,1.746094,-4.453215,2.992752,10.1993,0.3238404,1.030111,-0.1374191,-108,906,1407
2634.391,1.75,-3.864241,3.586514,9.83538,0.3824299,1.021589,-0.2790993,-126,945,1324
2634.395,1.753906,-2.499547,4.376601,9.720459,0.4143879,1.120658,-0.4474111,-62,966,1379
2634.398,1.757812,-1.508347,4.386177,9.854534,0.3281014,1.368865,-0.5336975,-94,951,1363
2634.402,1.761719,-1.417367,3.892972,9.639056,0.2790993,1.526524,-0.4836301,-85,942,1360
2634.406,1.765625,-1.647211,3.873818,9.80665,0.3355583,1.634116,-0.4527374,-106,968,1368
2634.41,1.769531,-2.217031,4.841076,9.739612,0.3355583,1.733185,-0.5060006,-86,918,1364
2634.414,1.773438,-2.595315,4.989516,9.548076,0.2993393,1.927063,-0.6455502,-97,930,1380
2634.418,1.777344,-2.777274,4.616021,9.739612,0.2897519,2.087918,-0.7467504,-104,913,1394
2634.422,1.78125,-2.863465,4.893748,10.18015,0.2535329,2.216815,-0.8106662,-152,926,1389
2634.426,1.785156,-2.384625,5.190629,9.916783,0.2024002,2.341451,-0.8426242,-40,936,1355
2634.43,1.789062,-1.656788,4.520253,9.572018,0.2183792,2.571548,-0.9257148,-83,933,1378
2634.434,1.792969,-1.786074,4.563348,9.730036,0.2300971,2.764361,-1.017328,-109,926,1406
2634.438,1.796875,-2.154781,5.214571,9.868899,0.2364887,2.957174,-1.076982,-92,976,1358
2634.441,1.800781,-2.207454,5.717354,10.03649,0.257794,3.141465,-1.123854,-93,976,1400
2634.445,1.804688,-2.097321,6.124368,10.00297,0.2567287,3.400324,-1.239968,-82,931,1403
2634.449,1.808594,-2.178724,6.531382,9.782708,0.273773,3.610181,-1.345429,-105,923,1444
2634.453,1.8125,-2.135628,7.19697,9.945514,0.2695119,3.824299,-1.442368,-83,933,1393
2634.457,1.816406,-2.15957,7.493851,9.485827,0.2545982,4.013916,-1.561678,-81,934,1376
2634.461,1.820312,-2.585738,8.020576,8.987833,0.2237055,4.284494,-1.798166,-110,923,1377
2634.465,1.824219,-2.767697,8.528146,8.930372,0.2130529,4.499677,-1.980327,-81,933,1391
2634.469,1.828125,-2.801216,9.131485,9.255984,0.1885518,4.699947,-2.178466,-85,947,1388
2634.473,1.832031,-2.911349,9.323021,9.77792,0.09374327,4.890629,-2.362757,-41,904,1386
2634.477,1.835938,-2.643199,9.538499,9.68694,-0.03728426,5.162271,-2.657835,-71,950,1412
2634.48,1.839844,-2.269703,9.260772,9.548076,-0.112918,5.361476,-2.857039,-65,929,1406
2634.484,1.84375,-1.671153,8.245631,9.629479,-0.1384844,5.557485,-3.040265,-114,962,1420
2634.488,1.847656,-1.493982,7.364564,9.672575,-0.1161138,5.766276,-3.251187,-107,892,1417
2634.492,1.851562,-1.58975,6.282385,9.59596,-0.1043959,6.139119,-3.501524,-85,922,1402
2634.496,1.855469,-2.312799,6.167463,9.557653,-0.08841695,6.489591,-3.68475,-72,924,1406
2634.5,1.859375,-2.978387,6.536171,10.06044,-0.06072007,6.805974,-3.8488,-70,889,1405
2634.504,1.863281,-3.371036,7.52737,10.56801,0.001065264,7.031811,-4.025634,-88,887,1389
2634.508,1.867188,-3.940856,8.034941,12.05241,0.1022654,7.180948,-4.163053,-81,910,1411
2634.512,1.871094,-5.971139,9.188946,11.67413,0.1107875,7.372695,-4.355866,-78,926,1398
2634.516,1.875,-7.905654,10.21366,9.519346,-0.07882957,7.644338,-4.484763,-89,870,1419
2634.52,1.878906,-10.56322,9.768343,9.825804,-0.006391587,7.926633,-4.505003,-52,924,1380
2634.523,1.882812,-16.87912,9.969456,11.87045,0.2269013,8.03742,-4.444283,-64,908,1412
2634.527,1.886719,-23.98511,10.74518,16.46732,0.4356932,7.61451,-4.338822,-82,915,1440
2634.531,1.890625,-30.86126,11.84651,19.47922,0.3036004,6.956177,-4.336692,-87,924,1422
2634.535,1.894531,-32.49889,12.69885,17.81765,-0.005326322,6.179599,-4.487959,-55,848,1409
2634.539,1.898438,-28.95069,11.88482,14.85842,0.1001349,5.473329,-4.616856,-58,879,1431
2634.543,1.902344,-23.02264,9.097966,16.21832,0.7797736,4.560397,-4.442153,-45,925,1461
2634.547,1.90625,-19.61809,7.455544,17.77934,0.8383631,4.025634,-4.274906,-35,865,1414
2634.551,1.910156,-18.21509,7.331045,16.66364,0.5443501,3.642139,-4.40913,-4,861,1436
2634.555,1.914062,-16.45774,8.207323,13.19684,0.237554,3.463175,-4.791559,-34,902,1458
2634.559,1.917969,-13.85764,9.543288,12.3062,0.4154531,3.289537,-5.146292,-47,914,1439
2634.562,1.921875,-11.51132,10.6925,10.73081,0.6189186,3.167031,-5.19636,-41,917,1439
2634.566,1.925781,-10.25676,10.75954,9.059659,0.8032094,3.176619,-5.106878,-24,905,1453
2634.57,1.929688,-9.744401,11.32936,9.342175,1.120658,3.300189,-4.818191,-48,890,1435
2634.574,1.933594,-9.734824,12.97657,11.95185,1.682053,3.151052,-4.277037,-43,950,1452
2634.578,1.9375,-10.29028,13.94383,13.0484,1.988849,2.871953,-3.939348,-23,897,1439
2634.582,1.941406,-10.23282,15.19839,13.5033,2.014415,2.642921,-3.750796,10,881,1440
2634.586,1.945312,-8.848969,16.69237,13.90073,1.887649,2.468218,-3.636813,-24,897,1452
2634.59,1.949219,-7.359776,18.96687,13.77624,1.463673,2.148638,-3.473827,-17,921,1498
2634.594,1.953125,-7.101202,18.4976,10.92714,0.7765778,1.885518,-3.485545,-6,938,1458
2634.598,1.957031,-4.309563,15.21276,8.236054,0.5645902,1.646899,-3.418434,-13,918,1406
2634.602,1.960938,-2.844312,15.62935,16.44338,1.237837,1.213336,-2.836799,14,924,1448
2634.605,1.964844,-5.401319,19.21107,18.12411,0.7563377,0.2844256,-1.799232,13,975,1458
2634.609,1.96875,-6.852205,18.94292,13.63258,0.1161138,-0.001065264,-1.575526,-40,976,1420
2634.613,1.972656,-8.66701,21.87821,17.89426,-0.2183792,-0.2162487,-1.695901,21,908,1431
2634.617,1.976562,-10.60631,24.42086,21.46162,-0.6189186,-0.9076053,-1.470065,2,893,1458
2634.621,1.980469,-8.628703,21.91652,17.37712,-0.813862,-2.03359,-0.3589941,-31,925,1446
2634.625,1.984375,-3.873818,18.20072,13.26867,-0.6093313,-2.516155,0.4143879,-6,895,1411
2634.629,1.988281,0.7900865,15.50006,10.39562,-0.5858954,-2.756904,0.753142,-45,957,1452
2634.633,1.992188,4.213795,13.45062,7.94875,-0.8479505,-2.826147,0.7872304,-36,926,1419
2634.637,1.996094,5.688623,11.26232,6.354211,-1.25062,-2.7601,0.7616641,-19,928,1433
2634.641,2,4.577714,9.730036,6.411672,-1.438107,-2.73986,0.8255799,-9,933,1429
2634.645,2.003906,2.844312,8.226477,6.50744,-1.500958,-2.810168,0.9491506,16,921,1417
2634.648,2.007812,1.939303,6.756437,6.110003,-1.394431,-2.948652,1.057808,-44,906,1452
2634.652,2.011719,2.657564,5.750872,4.994305,-1.159008,-3.093528,1.117462,-35,939,1425
2634.656,2.015625,4.256891,4.860229,3.98874,-0.8213189,-3.202185,1.157942,-45,934,1436
2634.66,2.019531,5.784391,4.261679,3.083732,-0.6402239,-3.202185,1.211206,-2,923,1423
2634.664,2.023438,6.684611,3.845088,2.63841,-0.5166533,-3.155313,1.28897,-46,939,1406
2634.668,2.027344,6.517017,3.605668,2.466028,-0.4324974,-3.107376,1.346494,1,971,1467
2634.672,2.03125,5.195418,3.907337,2.671929,-0.3376888,-3.073288,1.381648,-5,965,1387
2634.676,2.035156,4.01747,4.539406,2.954445,-0.2545982,-3.070092,1.401888,49,942,1420
2634.68,2.039062,3.20823,5.152322,3.08852,-0.1597897,-3.080745,1.444499,-24,919,1434
2634.684,2.042969,2.973598,5.420473,3.294421,-0.05752428,-3.114833,1.505219,21,943,1418
2634.688,2.046875,2.992752,5.018247,3.399766,0.06072007,-3.158509,1.597897,-39,948,1430
2634.691,2.050781,3.241749,4.778827,3.610456,0.1352886,-3.170227,1.662878,-42,935,1419
2634.695,2.054688,3.184288,5.042189,3.696647,0.1832255,-3.210707,1.717206,-29,911,1442
2634.699,2.058594,2.681506,5.750872,3.964798,0.2247708,-3.252252,1.791775,-29,925,1410
2634.703,2.0625,1.714248,6.382942,4.362235,0.2599245,-3.290602,1.939847,-51,935,1405
2634.707,2.066406,1.010353,6.459556,4.721366,0.2918825,-3.330017,2.063417,-1,917,1405
2634.711,2.070312,0.4070143,6.248866,5.023035,0.3430151,-3.384345,2.166748,-37,931,1433
2634.715,2.074219,0.04309563,6.042965,5.286397,0.4037352,-3.441869,2.2541,-29,968,1443
2634.719,2.078125,-0.2202666,5.78918,5.473145,0.4974785,-3.528156,2.380866,-41,937,1427
2634.723,2.082031,-0.3878607,5.731719,5.430049,0.5848302,-3.594202,2.493784,8,954,1389
2634.727,2.085938,-0.4884171,5.583278,5.535394,0.680704,-3.648531,2.614159,-58,917,1454
2634.73,2.089844,-0.5171476,5.48751,5.492299,0.7840346,-3.696468,2.728142,-38,960,1399
2634.734,2.09375,-0.7757213,5.315128,5.640739,0.9182579,-3.734817,2.871953,5,941,1408
2634.738,2.097656,-0.9959879,5.329493,5.722142,1.012001,-3.763579,2.965696,-24,930,1408
2634.742,2.101562,-1.115698,5.3678,5.741296,1.089766,-3.791276,3.046656,-32,928,1419
2634.746,2.105469,-1.235408,5.410896,5.616797,1.154747,-3.809386,3.115898,-67,955,1461
2634.75,2.109375,-1.345541,5.48751,5.693412,1.235707,-3.809386,3.208576,-48,959,1399
2634.754,2.113281,-1.489193,5.626374,5.904101,1.274056,-3.807255,3.274623,-30,940,1425
2634.758,2.117188,-1.814805,5.602432,5.961562,1.284709,-3.80619,3.325756,-31,931,1416
2634.762,2.121094,-2.035071,5.554548,6.052542,1.298557,-3.784885,3.360909,-50,949,1456
2634.766,2.125,-2.394202,5.588067,6.397307,1.318797,-3.748666,3.38328,-5,943,1441
2634.77,2.128906,-2.633622,5.554548,6.789956,1.319863,-3.728426,3.393932,-55,954,1417
2634.773,2.132812,-2.868254,5.544971,6.981492,1.323058,-3.715642,3.389671,-8,929,1422
2634.777,2.136719,-3.169923,5.453991,7.216124,1.356082,-3.687945,3.386476,-84,945,1424
2634.781,2.140625,-3.706224,5.3678,7.987057,1.406149,-3.662379,3.379019,-63,924,1397
2634.785,2.144531,-3.998317,5.334281,8.30788,1.438107,-3.647465,3.36517,-22,925,1401
2634.789,2.148438,-4.462792,5.463568,8.738836,1.480718,-3.62616,3.34493,-25,951,1423
2634.793,2.152344,-4.984728,5.602432,9.404424,1.541438,-3.602724,3.328951,-71,974,1408
2634.797,2.15625,-5.985504,5.861006,10.3238,1.597897,-3.60379,3.325756,-21,923,1407
2634.801,2.160156,-6.789956,6.052542,10.82179,1.65116,-3.627225,3.335343,-73,937,1384
2634.805,2.164062,-7.431602,6.200982,11.17134,1.695901,-3.648531,3.325756,-48,938,1421
2634.809,2.167969,-7.848193,6.469133,11.49217,1.738512,-3.673032,3.30232,-59,943,1406
2634.812,2.171875,-8.255207,6.83784,11.76511,1.754491,-3.690076,3.269297,-67,909,1435
2634.816,2.175781,-8.762778,7.264008,12.24395,1.764078,-3.709251,3.2416,-41,926,1397
2634.82,2.179688,-9.251195,7.460332,12.56477,1.761947,-3.716708,3.232012,-69,927,1447
2634.824,2.183594,-9.744401,7.580042,13.03403,1.755556,-3.728426,3.234143,-42,962,1401
2634.828,2.1875,-10.17536,7.776367,13.3788,1.745968,-3.7476,3.236273,-38,945,1394
2634.832,2.191406,-10.51055,8.298303,13.59907,1.748099,-3.768906,3.247991,-53,974,1399
2634.836,2.195312,-10.63026,8.767566,13.78581,1.750229,-3.769971,3.289537,-81,945,1463
2634.84,2.199219,-10.62068,9.179369,13.88158,1.73212,-3.761449,3.350257,-127,954,1424
2634.844,2.203125,-10.59195,9.572018,14.13058,1.688444,-3.746535,3.412042,-52,1006,1392
2634.848,2.207031,-10.62068,10.09395,14.09706,1.605354,-3.691141,3.483415,-61,936,1419
2634.852,2.210938,-10.69729,10.33816,14.07312,1.528654,-3.632552,3.537743,-73,959,1400
2634.855,2.214844,-10.88404,10.31901,14.00608,1.442368,-3.564375,3.601659,-72,944,1406
2634.859,2.21875,-11.20965,10.0748,13.96777,1.370995,-3.482349,3.668771,-53,966,1390
2634.863,2.222656,-11.81778,9.811438,14.01566,1.292166,-3.388606,3.736948,-87,922,1401
2634.867,2.226562,-12.40675,9.380482,13.86722,1.233576,-3.314038,3.759318,-115,935,1420
2634.871,2.230469,-13.02446,8.848969,13.872,1.203749,-3.226686,3.761449,-112,970,1373
2634.875,2.234375,-13.52724,8.441955,13.94383,1.199488,-3.154248,3.749731,-110,968,1390
2634.879,2.238281,-14.3269,8.054094,13.88637,1.204814,-3.067962,3.72523,-63,977,1372
2634.883,2.242188,-15.02601,7.872135,13.9582,1.226119,-3.010437,3.697533,-105,967,1441
2634.887,2.246094,-15.66287,7.680599,14.04918,1.246359,-2.963566,3.653857,-131,983,1382
2634.891,2.25,-15.94538,7.546524,13.9965,1.261273,-2.929477,3.591006,-117,1005,1382
2634.895,2.253906,-16.21832,7.580042,13.78102,1.310275,-2.884736,3.493002,-113,946,1397
2634.898,2.257812,-16.3524,7.972692,13.80018,1.335842,-2.837864,3.421629,-113,924,1413
2634.902,2.261719,-16.48647,8.403648,13.89116,1.326254,-2.771818,3.374758,-126,1009,1392
2634.906,2.265625,-16.98925,9.006987,14.07791,1.284709,-2.71749,3.327886,-82,976,1356
2634.91,2.269531,-17.85117,9.859322,14.25987,1.227185,-2.665292,3.265035,-115,965,1418
2634.914,2.273438,-18.53112,10.84095,14.15931,1.174987,-2.640791,3.225621,-124,972,1412
2634.918,2.277344,-19.3643,11.65019,13.85764,1.094027,-2.608833,3.209642,-124,976,1403
2634.922,2.28125,-19.89103,12.17212,13.59907,0.9832391,-2.575809,3.208576,-122,993,1393
2634.926,2.285156,-20.01553,11.9758,12.73236,0.8415589,-2.509763,3.18088,-141,966,1397
2634.93,2.289062,-19.53669,11.08037,12.11945,0.7659251,-2.445847,3.144661,-112,965,1417
2634.934,2.292969,-18.64604,9.557653,11.19529,0.6998787,-2.351039,3.111637,-118,1008,1392
2634.938,2.296875,-17.51598,7.704541,10.0317,0.6562029,-2.230664,3.098854,-143,1010,1388
2634.941,2.300781,-16.52957,4.687847,9.260772,0.6977482,-2.09431,3.082875,-130,963,1392
2634.945,2.304688,-17.60696,0.2106897,8.370129,0.8756474,-1.736381,3.016829,-123,987,1421
2634.949,2.308594,-20.42254,-1.120486,8.662222,1.074852,-1.530785,2.971023,-117,1007,1388
2634.953,2.3125,-23.71217,-1.106121,8.992621,1.330515,-1.514806,2.914563,-124,993,1370
2634.957,2.316406,-26.27397,0.1388637,8.231265,1.535046,-1.522263,2.786732,-131,983,1399
2634.961,2.320312,-27.04969,1.144428,7.125144,1.588309,-1.449825,2.51935,-137,995,1441
2634.965,2.324219,-26.30749,0.1436521,6.272808,1.515871,-1.358212,2.27647,-135,1013,1410
2634.969,2.328125,-25.38333,-1.781286,5.425261,1.401888,-1.225054,2.034655,-139,1003,1406
2634.973,2.332031,-25.07687,-3.773262,4.845864,1.257012,-1.070591,1.816276,-126,980,1377
2634.977,2.335938,-25.58923,-6.100426,4.448427,1.067395,-0.8713863,1.593636,-95,988,1422
2634.98,2.339844,-26.3458,-7.829039,3.840299,0.9534117,-0.7286409,1.454086,-146,967,1436
2634.984,2.34375,-26.95392,-9.390059,3.289633,0.8735168,-0.5944176,1.314536,-133,1039,1376
2634.988,2.347656,-27.35136,-10.44351,2.748544,0.8053399,-0.4655206,1.157942,-139,1008,1389
2634.992,2.351562,-27.56684,-11.12825,2.130839,0.6998787,-0.3281014,0.9416938,-128,996,1395
2634.996,2.355469,-27.44713,-10.97023,1.584961,0.5816344,-0.2269013,0.7765778,-124,1016,1408
2635,2.359375,-27.02096,-10.49139,1.106121,0.4239752,-0.1182444,0.6093313,-133,1021,1392
2635.004,2.363281,-26.35537,-10.13226,0.5123592,0.221575,0.02024002,0.427171,-148,994,1401
2635.008,2.367188,-25.22531,-9.610325,0.1723825,-0.09267801,0.2396845,0.1640507,-134,985,1407
2635.012,2.371094,-24.26763,-9.308656,0.07661445,-0.3089267,0.4079963,-0.03408846,-129,1017,1426
2635.016,2.375,-23.22376,-8.834604,0.2059013,-0.4857606,0.5869607,-0.2269013,-104,1008,1404
2635.02,2.378906,-22.30917,-8.145074,0.8954314,-0.628506,0.7616641,-0.3856257,-136,969,1409
2635.023,2.382812,-21.3467,-6.804321,1.814805,-0.7637946,0.9672601,-0.5454154,-155,1007,1374
2635.027,2.386719,-20.59971,-5.544971,2.868254,-0.8085357,1.102549,-0.6359629,-137,1026,1426
2635.031,2.390625,-19.76174,-3.974375,3.974375,-0.8255799,1.211206,-0.7094661,-130,1017,1381
2635.035,2.394531,-18.67956,-2.48997,5.032612,-0.8106662,1.295362,-0.7840346,-164,975,1385
2635.039,2.398438,-22.73534,-9.821015,-1.910573,-0.3888215,1.481783,-0.8980179,-135,1017,1431
2635.043,2.402344,-16.09861,-3.462016,6.698976,-0.5571333,1.823733,-1.324124,-171,1010,1416
2635.047,2.40625,-3.519476,4.596867,4.141969,0.1161138,1.34969,-1.978196,-110,997,1390
2635.051,2.410156,9.107543,9.945514,-0.4405331,0.9619338,0.680704,-2.348908,-144,1001,1402
2635.055,2.414062,28.76873,24.03778,8.418013,0.8756474,1.38804,-3.433347,-125,992,1398
2635.059,2.417969,37.06703,35.53474,16.32846,-0.7499462,2.293514,-4.770254,-150,966,1422
2635.062,2.421875,31.28264,35.18998,19.31642,-2.405367,3.400324,-5.975068,-67,963,1383
2635.066,2.425781,4.955997,14.03481,19.56063,-2.870888,3.690076,-6.078399,-127,978,1419
2635.07,2.429688,-41.89853,-17.00841,22.95561,-3.048787,3.667705,-5.012069,-125,946,1402
2635.074,2.433594,-54.53991,-18.01397,27.4567,-1.557417,2.665292,-3.299124,-141,979,1378
2635.078,2.4375,-41.7884,0.5315128,16.03157,0.144876,0.5965481,-2.485262,-137,982,1387
2635.082,2.441406,-18.67956,16.5152,1.086968,0.1992044,0.6530071,-2.380866,-116,986,1413
2635.086,2.445312,-0.07182605,18.51197,4.295198,-1.102549,2.261556,-2.538525,-160,996,1444
2635.09,2.449219,0.9337386,6.622362,18.20072,-1.348625,2.724946,-1.999501,-119,968,1415
2635.094,2.453125,-2.619257,3.557784,15.38993,-1.437042,2.260491,-1.284709,-142,972,1398
2635.098,2.457031,-4.276044,6.229713,10.07001,-1.42852,2.293514,-1.342233,-133,972,1420
2635.102,2.460938,-3.198653,5.961562,8.418013,-1.057808,2.388323,-1.69377,-147,992,1394
2635.105,2.464844,-3.031059,2.06859,8.839393,-0.8202536,2.356365,-1.783253,-122,996,1419
2635.109,2.46875,-4.951209,2.94008,10.1179,-0.8586031,2.237055,-1.401888,-126,1018,1378
2635.113,2.472656,-8.063671,5.573701,10.21366,-0.9853696,2.106028,-1.135572,-109,949,1386
2635.117,2.476562,-9.141062,5.262455,9.509769,-1.043959,2.069809,-1.222924,-163,977,1457
2635.121,2.480469,-5.568913,1.747767,8.743624,-0.9416938,2.025068,-1.687379,-94,1000,1418
2635.125,2.484375,-1.814805,1.192312,8.212112,-0.8351673,1.979261,-1.855691,-112,970,1372
2635.129,2.488281,0.7230489,3.945644,6.766014,-0.8010789,1.929194,-1.726794,-123,978,1394
2635.133,2.492188,-0.3782839,6.406884,6.904878,-0.7403588,1.980327,-1.425324,-144,952,1411
2635.137,2.496094,-13.90073,25.34502,27.16461,-2.574744,1.839712,-1.49137,-136,978,1407
2635.141,2.5,-21.00673,29.67852,17.31965,-5.270928,1.594701,-1.737446,-97,967,1380
2635.145,2.503906,-23.38177,15.57189,7.642292,-3.638943,1.216532,-1.563808,-102,993,1400
2635.148,2.507812,-19.54626,7.019799,12.24395,-1.704423,0.5709817,-1.331581,-143,962,1410
2635.152,2.511719,-7.603984,6.904878,9.021352,-1.744903,-0.09800433,-1.205879,-110,976,1390
2635.156,2.515625,-1.326388,3.830723,7.694964,-2.151834,0.4143879,-1.001349,-113,998,1383
2635.16,2.519531,-0.1867477,-4.659116,12.29183,-2.026133,0.6167881,-0.773382,-120,950,1365
2635.164,2.523438,-0.3782839,-7.747637,12.40675,-1.618137,0.3153183,-0.4655206,-143,910,1421
2635.168,2.527344,0.07661445,0.225055,8.872911,-1.094027,-0.03834952,-0.608266,-140,971,1397
2635.172,2.53125,-1.034295,8.030152,7.963115,-1.064199,0.1203749,-0.8639295,-114,976,1412
2635.176,2.535156,-3.691859,10.46745,7.900865,-1.121723,0.3131877,-0.813862,-96,963,1394
2635.18,2.539062,-5.90889,8.374917,7.469909,-1.176052,0.3696468,-0.5379585,-123,984,1458
2635.184,2.542969,-5.990293,6.100426,7.704541,-0.9853696,0.2929477,-0.3334278,-121,971,1407
2635.188,2.546875,-5.018247,5.396531,7.987057,-0.8586031,0.3078614,-0.3834952,-146,999,1425
2635.191,2.550781,-3.98874,4.414908,9.390059,-0.8628642,0.3462109,-0.4154531,-102,984,1393
2635.195,2.554688,-3.294421,2.288857,9.89763,-0.8756474,0.2759035,-0.3856257,-123,940,1456
2635.199,2.558594,-2.762909,0.6033388,9.600749,-0.7020093,0.1576591,-0.3643204,-108,994,1455
2635.203,2.5625,-3.490746,1.934515,9.59596,-0.5060006,0.07456851,-0.3984089,-66,971,1414
2635.207,2.566406,-4.941632,4.070143,8.662222,-0.40267,0.01384844,-0.3653857,-87,976,1395
2635.211,2.570312,-5.664681,5.894524,8.106767,-0.3685815,-0.03195793,-0.2748382,-105,918,1403
2635.215,2.574219,-5.391742,6.536171,7.73806,-0.3398194,-0.04474111,-0.1821602,-105,968,1406
2635.219,2.578125,-5.075708,4.654328,8.355764,-0.3643204,-0.008522115,-0.1203749,-79,984,1410
2635.223,2.582031,-4.443638,3.064578,8.485051,-0.3451457,-0.03195793,-0.1012001,-101,969,1402
2635.227,2.585938,-3.433285,2.825158,8.470685,-0.2705772,-0.07456851,-0.09267801,-92,955,1394
2635.23,2.589844,-2.647987,3.236961,8.499416,-0.2045308,-0.08522115,-0.07350325,-114,990,1451
2635.234,2.59375,-2.647987,3.667917,8.461109,-0.205596,-0.06498113,-0.04367584,-79,985,1400
2635.238,2.597656,-3.198653,3.438074,8.418013,-0.1704423,-0.05219796,-0.008522115,-98,951,1378
2635.242,2.601562,-3.754108,3.615245,8.384494,-0.1384844,-0.05645902,0.003195793,-126,922,1422
2635.246,2.605469,-3.931279,4.118027,8.169016,-0.08948221,-0.06178534,0.001065264,-114,984,1427
2635.25,2.609375,-3.711013,4.381389,8.240842,-0.06924219,-0.05113269,0.01384844,-103,996,1420
2635.254,2.613281,-3.442862,3.96001,8.240842,-0.07350325,-0.04580637,0.02556635,-127,948,1419
2635.258,2.617188,-3.260903,3.414132,8.245631,-0.05219796,-0.04261058,0.03728426,-79,971,1444
2635.262,2.621094,-3.136404,3.213019,8.374917,-0.02130529,-0.03621899,0.04367584,-117,969,1442
2635.266,2.625,-3.064578,2.925714,8.523358,0.01171791,-0.02024002,0.04580637,-90,989,1417
2635.27,2.628906,-3.189077,2.681506,8.619126,0.0298274,-0.005326322,0.0298274,-72,961,1403
2635.273,2.632812,-3.265691,2.705448,8.508993,0.05858954,0.006391587,0.01384844,-88,933,1377
2635.277,2.636719,-3.232172,3.107674,8.528146,0.09906959,0.00958738,0.0181095,-151,981,1418
2635.281,2.640625,-3.093309,3.548207,8.346187,0.1161138,0.02450108,0.0298274,-105,977,1363
2635.285,2.644531,-3.026271,3.739743,8.2169,0.1171791,0.03941478,0.02343582,-110,943,1377
2635.289,2.648438,-3.155558,3.926491,8.149862,0.1235707,0.05219796,0.01384844,-98,940,1473
2635.293,2.652344,-3.256114,3.945644,8.192958,0.1331581,0.05219796,0.008522115,-65,968,1430
2635.297,2.65625,-3.371036,4.22816,8.09719,0.1438107,0.03408846,-0.005326322,-67,967,1395
2635.301,2.660156,-3.476381,4.424485,7.862558,0.1438107,0.01704423,-0.01384844,-104,932,1390
2635.305,2.664062,-3.533842,4.491522,7.943961,0.1384844,0.006391587,-0.02769688,-76,932,1417
2635.309,2.667969,-3.581726,4.55856,7.982268,0.1310275,-0.01278317,-0.04048005,-112,958,1410
2635.312,2.671875,-3.457227,4.367024,7.97748,0.1225054,-0.02343582,-0.05645902,-110,1015,1354
2635.316,2.675781,-3.39019,4.22816,7.996634,0.1139833,-0.0181095,-0.06178534,-81,961,1379
2635.32,2.679688,-3.308787,4.13718,7.982268,0.1075917,-0.01171791,-0.06072007,-116,940,1397
2635.324,2.683594,-3.318364,4.141969,7.920019,0.1118528,-0.0149137,-0.05539375,-120,979,1424
2635.328,2.6875,-3.303998,4.491522,7.967903,0.1150486,-0.02556635,-0.03621899,-96,997,1365
2635.332,2.691406,-3.270479,4.855441,7.891289,0.1065264,-0.03728426,-0.02556635,-86,944,1434
2635.336,2.695312,-3.213019,5.080496,7.819463,0.09161274,-0.04900216,-0.03089267,-123,912,1424
2635.34,2.699219,-3.227384,5.061342,7.771579,0.07882957,-0.04900216,-0.04580637,-121,958,1442
2635.344,2.703125,-3.294421,4.903325,7.723695,0.06072007,-0.05432849,-0.06498113,-105,1010,1433
2635.348,2.707031,-3.323152,4.912902,7.73806,0.05113269,-0.06498113,-0.06391587,-125,988,1382
2635.352,2.710938,-3.342306,5.023035,7.824251,0.04154531,-0.08841695,-0.05539375,-121,984,1446
2635.355,2.714844,-3.361459,4.951209,7.85777,0.02769688,-0.1107875,-0.05645902,-112,973,1441
2635.359,2.71875,-3.399766,4.831499,7.73806,0.006391587,-0.1214401,-0.0660464,-111,984,1417
2635.363,2.722656,-3.371036,4.582502,7.752425,0.001065264,-0.1171791,-0.07989483,-95,951,1369
2635.367,2.726562,-3.495534,4.52983,7.843405,0.002130529,-0.1235707,-0.08415589,-139,965,1423
2635.371,2.730469,-3.557784,4.443638,7.915231,-0.005326322,-0.1352886,-0.07456851,-108,989,1436
2635.375,2.734375,-3.572149,4.419696,7.852981,-0.01597897,-0.1438107,-0.06391587,-122,967,1396
2635.379,2.738281,-3.529053,4.429273,7.910442,-0.02556635,-0.1512675,-0.05539375,-116,961,1408
2635.383,2.742188,-3.471592,4.453215,7.900865,-0.03195793,-0.1672465,-0.06391587,-120,951,1413
2635.387,2.746094,-3.337517,4.592079,7.876923,-0.03621899,-0.1736381,-0.07350325,-110,1005,1441
2635.391,2.75,-3.251326,4.616021,7.94875,-0.04048005,-0.1725728,-0.08309063,-76,962,1398
2635.395,2.753906,-3.145981,4.309563,7.972692,-0.05326322,-0.1661813,-0.09161274,-73,944,1386
2635.398,2.757812,-3.213019,4.084508,8.087613,-0.05326322,-0.1597897,-0.09800433,-97,954,1435
2635.402,2.761719,-3.318364,3.921702,8.111555,-0.04900216,-0.1576591,-0.09906959,-111,939,1437
2635.406,2.765625,-3.428497,3.921702,8.130709,-0.04261058,-0.1576591,-0.09161274,-93,950,1388
2635.41,2.769531,-3.347094,3.950433,8.149862,-0.04048005,-0.1565939,-0.08948221,-105,963,1384
2635.414,2.773438,-3.275268,3.931279,8.087613,-0.04474111,-0.149137,-0.09374327,-160,949,1415
2635.418,2.777344,-3.174711,3.845088,8.18817,-0.04261058,-0.1416802,-0.09800433,-115,1002,1405
2635.422,2.78125,-3.189077,3.845088,8.149862,-0.03408846,-0.1363538,-0.09800433,-138,968,1392
2635.426,2.785156,-3.131616,3.926491,8.140286,-0.02769688,-0.1193096,-0.08948221,-141,932,1404
2635.43,2.789062,-3.131616,3.950433,8.149862,-0.0298274,-0.108657,-0.07563377,-149,996,1415
2635.434,2.792969,-3.150769,3.964798,8.12592,-0.03089267,-0.09800433,-0.06391587,-92,992,1420
2635.438,2.796875,-3.126827,4.022259,8.130709,-0.03195793,-0.08522115,-0.05645902,-108,941,1386
2635.441,2.800781,-3.193865,4.022259,8.073248,-0.02556635,-0.07456851,-0.05965481,-84,953,1404
2635.445,2.804688,-3.20823,4.180276,8.06846,-0.02663161,-0.06924219,-0.06391587,-113,919,1406
2635.449,2.808594,-3.126827,4.252102,8.049306,-0.02556635,-0.07137272,-0.06711166,-123,971,1419
2635.453,2.8125,-3.107674,4.309563,8.12592,-0.02343582,-0.07563377,-0.07137272,-110,976,1390
2635.457,2.816406,-3.074155,4.367024,8.049306,-0.0298274,-0.07350325,-0.08735168,-81,978,1378
2635.461,2.820312,-3.107674,4.376601,7.967903,-0.03195793,-0.07030745,-0.1012001,-101,949,1445
2635.465,2.824219,-3.102885,4.539406,7.987057,-0.02876214,-0.0660464,-0.108657,-136,1000,1408
2635.469,2.828125,-3.055001,4.683058,7.939173,-0.0298274,-0.08309063,-0.1161138,-95,933,1372
2635.473,2.832031,-2.973598,4.692635,7.943961,-0.0330232,-0.08309063,-0.1342233,-82,949,1387
2635.477,2.835938,-2.911349,4.644751,7.924807,-0.03834952,-0.07350325,-0.1523328,-92,942,1415
2635.48,2.839844,-2.983175,4.683058,7.958326,-0.03515373,-0.06391587,-0.165116,-142,934,1408
2635.484,2.84375,-3.05979,4.601656,8.044518,-0.02876214,-0.0660464,-0.1661813,-82,989,1386
2635.488,2.847656,-3.05979,4.544195,8.092402,-0.02450108,-0.06498113,-0.1704423,-93,940,1379
2635.492,2.851562,-2.99754,4.477157,8.092402,-0.01597897,-0.05432849,-0.1778992,-123,966,1407
2635.496,2.855469,-3.011906,4.376601,8.034941,-0.005326322,-0.04048005,-0.1874865,-92,977,1354
2635.5,2.859375,-3.007117,4.371812,8.169016,0.007456851,-0.02769688,-0.1938781,-76,1013,1406
2635.504,2.863281,-2.992752,4.295198,8.274361,0.02024002,-0.01384844,-0.1970739,-89,931,1436
2635.508,2.867188,-3.035848,3.979163,8.279149,0.03941478,0.002130529,-0.201335,-113,947,1392
2635.512,2.871094,-3.093309,3.878607,8.245631,0.05752428,0.03089267,-0.2109224,-118,1004,1395
2635.516,2.875,-3.122039,3.969586,8.288726,0.08309063,0.05113269,-0.2098571,-104,978,1385
2635.52,2.878906,-3.050213,4.165911,8.288726,0.1033307,0.07243798,-0.2066613,-72,948,1448
2635.523,2.882812,-2.954445,4.19943,8.394071,0.1182444,0.1001349,-0.2077266,-127,957,1395
2635.527,2.886719,-3.002329,4.055778,8.293515,0.1320928,0.1299623,-0.2151834,-90,984,1389
2635.531,2.890625,-3.055001,4.027047,8.341399,0.1565939,0.1683118,-0.2194445,-109,985,1405
2635.535,2.894531,-2.992752,4.022259,8.389283,0.1768339,0.2077266,-0.2173139,-93,929,1385
2635.539,2.898438,-3.016694,3.983952,8.379706,0.2002697,0.2556635,-0.2045308,-113,980,1405
2635.543,2.902344,-3.021482,4.165911,8.360552,0.2205097,0.294013,-0.1960087,-91,969,1391
2635.547,2.90625,-2.992752,4.118027,8.394071,0.2482066,0.3376888,-0.1906823,-113,962,1405
2635.551,2.910156,-3.098097,3.792415,8.274361,0.2705772,0.3771036,-0.205596,-89,958,1412
2635.555,2.914062,-3.126827,4.027047,8.078036,0.40267,0.4207795,-0.2322276,-97,956,1418
2635.559,2.917969,-2.873042,5.473145,8.647856,0.4761732,0.4303668,-0.2098571,-91,957,1421
2635.562,2.921875,-2.72939,6.742072,8.882488,0.3675162,0.4303668,-0.1992044,-142,956,1384
2635.566,2.925781,-2.777274,6.469133,8.18817,0.2354234,0.4420847,-0.2471413,-120,951,1427
2635.57,2.929688,-3.308787,4.501099,7.642292,0.3078614,0.531567,-0.3483415,-93,992,1428
2635.574,2.933594,-3.016694,5.621585,9.370905,0.42291,0.5187838,-0.4175837,-141,965,1424
2635.578,2.9375,-2.949656,4.084508,8.90643,0.2759035,0.5507417,-0.4250405,-84,994,1391
2635.582,2.941406,-2.868254,3.916914,7.891289,0.2652508,0.6775082,-0.3792341,-87,974,1401
2635.586,2.945312,-2.557007,5.190629,8.829816,0.4016047,0.7691209,-0.3355583,-145,963,1401
2635.59,2.949219,-2.72939,5.152322,9.14585,0.3451457,0.7946873,-0.3792341,-110,936,1426
2635.594,2.953125,-3.213019,4.362235,9.011775,0.278034,0.8692558,-0.4442153,-123,972,1432
2635.598,2.957031,-3.428497,4.127604,8.954314,0.2684466,0.9821738,-0.4761732,-144,959,1399
2635.602,2.960938,-2.87783,4.280833,9.141062,0.2514024,1.099353,-0.4900216,-93,982,1429
2635.605,2.964844,-2.595315,4.448427,9.059659,0.2524677,1.156877,-0.5049353,-126,983,1404
2635.609,2.96875,-2.671929,4.453215,9.02614,0.2545982,1.241033,-0.5241101,-111,991,1394
2635.613,2.972656,-2.825158,4.754884,9.069236,0.2247708,1.343298,-0.5571333,-110,916,1391
2635.617,2.976562,-2.983175,4.458003,9.107543,0.2066613,1.478587,-0.5944176,-111,944,1426
2635.621,2.980469,-3.002329,4.122815,9.078813,0.2002697,1.585113,-0.6295713,-138,972,1406
2635.625,2.984375,-3.031059,4.663905,9.107543,0.205596,1.689509,-0.6679208,-87,938,1397
2635.629,2.988281,-3.074155,5.123592,9.433155,0.1949434,1.787514,-0.6956177,-76,951,1414
2635.633,2.992188,-2.8491,5.272032,9.299079,0.1214401,1.928129,-0.757403,-146,925,1434
2635.637,2.996094,-2.738967,4.716577,8.939949,0.1043959,2.067678,-0.8202536,-117,992,1394
2635.641,3,-2.652775,4.46758,8.911219,0.1459412,2.210424,-0.882039,-135,951,1432
2635.645,3.003906,-2.8491,4.687847,9.136274,0.1768339,2.333994,-0.922519,-103,940,1441
2635.648,3.007812,-2.916138,4.908113,9.08839,0.1874865,2.455435,-0.9672601,-146,892,1402
2635.652,3.011719,-3.069367,5.013458,8.872911,0.1928129,2.659965,-1.056742,-88,986,1414
2635.656,3.015625,-2.987964,5.209783,9.035717,0.2077266,2.82082,-1.133441,-82,948,1388
2635.66,3.019531,-2.992752,5.118803,9.203311,0.2279666,2.967827,-1.215467,-96,934,1364
2635.664,3.023438,-2.786851,5.281609,9.572018,0.2482066,3.124421,-1.300688,-126,944,1423
2635.668,3.027344,-2.39899,5.343858,9.816227,0.2961435,3.368366,-1.414671,-90,967,1420
2635.672,3.03125,-2.073379,5.549759,10.16099,0.2790993,3.595267,-1.473261,-103,925,1397
2635.676,3.035156,-1.929727,5.808333,10.29507,0.2865561,3.841344,-1.543568,-75,944,1437
2635.68,3.039062,-2.035071,5.971139,10.13226,0.2929477,4.118312,-1.640507,-131,954,1442
2635.684,3.042969,-2.106897,7.326257,10.11311,0.2631203,4.526309,-1.767274,-127,965,1447
2635.688,3.046875,-2.485181,8.279149,9.629479,0.2354234,4.807538,-1.911084,-96,933,1369
2635.691,3.050781,-2.561796,8.51857,9.524134,0.1672465,5.091964,-2.0762,-64,924,1417
2635.695,3.054688,-2.590526,8.633491,9.126697,0.1725728,5.352954,-2.311624,-115,958,1397
2635.699,3.058594,-2.37026,9.519346,10.27591,0.2290319,5.67999,-2.673814,-86,931,1421
2635.703,3.0625,-1.752556,9.830592,10.18493,0.2066613,5.893043,-2.958239,-78,908,1427
2635.707,3.066406,-0.8092402,8.45632,9.83538,0.1928129,6.174273,-3.238404,-97,935,1432
2635.711,3.070312,-0.296881,6.900089,9.878476,0.2663161,6.565225,-3.506851,-72,921,1389
2635.715,3.074219,-0.3974375,4.893748,9.35654,0.3973436,7.217167,-3.799798,-100,902,1434
2635.719,3.078125,-0.7086837,4.707,9.524134,0.5390238,7.726363,-3.96811,-88,926,1386
2635.723,3.082031,-1.144428,5.372589,10.01734,0.7254451,8.130098,-4.158792,-109,948,1406
2635.727,3.085938,-1.991976,6.215348,10.48181,0.9139969,8.411328,-4.346279,-88,922,1436
2635.73,3.089844,-4.343082,7.120356,10.70208,1.117462,8.808672,-4.601942,-110,930,1396
2635.734,3.09375,-8.643068,9.691728,8.508993,1.171791,9.213472,-4.738296,-60,888,1450
2635.738,3.097656,-12.01889,10.12268,6.665457,1.009871,9.5469,-4.731905,-57,897,1450
2635.742,3.101562,-17.88947,10.07001,8.470685,1.374191,9.634252,-4.57105,-109,958,1441
2635.746,3.105469,-31.31137,12.17212,15.50485,1.881257,9.297628,-4.217382,-106,936,1420
2635.75,3.109375,-38.10133,13.88637,19.8623,1.63305,8.425176,-4.155597,-81,950,1442
2635.754,3.113281,-39.41335,14.03481,18.88546,1.386974,7.242733,-4.279167,-79,921,1458
2635.758,3.117188,-35.64966,13.44584,18.11932,1.352886,6.192382,-4.462393,-81,920,1461
2635.762,3.121094,-24.37776,10.78348,17.13291,1.601092,5.075985,-4.45174,-37,931,1459
2635.766,3.125,-17.70273,8.279149,15.16487,1.950499,4.562528,-4.207795,-38,899,1450
2635.77,3.128906,-15.07868,6.708553,14.32211,2.014415,4.397412,-4.065049,-80,899,1460
2635.773,3.132812,-14.62857,7.264008,13.5847,1.595766,4.404868,-4.35267,-80,934,1481
2635.777,3.136719,-13.61822,9.351752,11.48259,1.179248,4.529504,-4.962002,-71,928,1438
2635.781,3.140625,-11.48738,11.42034,11.71722,1.332646,4.480502,-5.144162,-59,938,1468
2635.785,3.144531,-10.1993,12.24874,11.37725,1.675661,4.304734,-4.977981,-62,919,1472
2635.789,3.148438,-8.968679,12.82334,11.00375,1.892975,4.169445,-4.579572,-73,912,1512
2635.793,3.152344,-7.934384,12.74673,11.26711,2.226403,4.030961,-4.204599,-68,950,1455
2635.797,3.15625,-7.900865,13.65174,13.97256,2.756904,3.681554,-3.972371,-65,889,1459
2635.801,3.160156,-8.604761,14.97813,13.63737,2.825081,3.359844,-4.009655,-35,908,1482
2635.805,3.164062,-9.375694,15.96933,11.38682,2.592854,3.20112,-4.248275,-48,948,1467
2635.809,3.167969,-8.221689,17.31965,10.03649,2.095375,3.202185,-4.642422,-67,920,1464
2635.812,3.171875,-3.490746,21.27966,9.160216,1.474326,3.131877,-4.777711,-38,911,1469
2635.816,3.175781,-2.585738,21.13601,11.59751,1.272991,3.042395,-4.321778,-44,908,1482
2635.82,3.179688,-7.584831,21.0163,18.25339,1.051416,2.749448,-3.616573,-63,956,1504
2635.824,3.183594,-13.33091,20.21185,18.63168,0.1821602,2.071939,-3.216033,-48,931,1467
2635.828,3.1875,-14.23592,17.48725,13.06276,-0.2897519,1.188835,-3.309777,-56,925,1442
2635.832,3.191406,-12.37323,19.37388,17.02756,-0.3217099,0.5592638,-3.265035,-51,890,1438
2635.836,3.195312,-11.53526,22.13679,20.53746,-0.7669904,-0.3760383,-2.69938,-65,941,1488
2635.84,3.199219,-11.37246,22.91251,19.67555,-1.119593,-1.229315,-1.812015,-66,944,1439
2635.844,3.203125,-10.67335,22.26608,18.8711,-0.9129316,-2.065548,-0.6732471,-63,913,1433
2635.848,3.207031,-8.604761,20.46564,17.41542,-0.680704,-2.747317,0.06391587,-22,935,1458
2635.852,3.210938,-5.353435,17.57344,14.18325,-0.6221144,-3.333212,0.664725,-31,956,1451
2635.855,3.214844,-2.365471,15.14572,11.12825,-0.664725,-3.702859,1.065264,-51,949,1492
2635.859,3.21875,-0.9576807,13.87679,9.179369,-0.8841695,-3.972371,1.32945,-26,895,1416
2635.863,3.222656,-1.843535,13.99171,8.863335,-1.137702,-4.116182,1.464739,-34,922,1476
2635.867,3.226562,-3.39019,14.08748,8.743624,-1.34969,-4.294081,1.629855,-79,950,1483
2635.871,3.230469,-4.52983,13.03403,8.394071,-1.447694,-4.531635,1.814145,-42,951,1434
2635.875,3.234375,-4.395754,10.30943,6.737283,-1.379517,-4.887433,2.000567,-42,917,1473
2635.879,3.238281,-2.954445,7.991845,5.166687,-1.236772,-5.113269,2.084723,-50,912,1511
2635.883,3.242188,-1.11091,6.200982,3.969586,-1.083374,-5.285842,2.140116,-62,904,1464
2635.887,3.246094,0.3974375,4.994305,3.098097,-0.9725864,-5.387042,2.156095,-60,942,1448
2635.891,3.25,1.144428,4.64954,2.317587,-0.9182579,-5.429653,2.159291,-35,898,1459
2635.895,3.253906,1.134852,4.88896,2.073379,-0.9001484,-5.426457,2.158226,-30,941,1467
2635.898,3.257812,0.866701,4.869806,1.872266,-0.8543421,-5.399825,2.151834,-80,907,1444
2635.902,3.261719,0.8954314,4.534618,1.651999,-0.7819041,-5.360411,2.140116,-83,905,1464
2635.906,3.265625,1.23062,3.758897,1.398214,-0.6412892,-5.290103,2.110289,-52,877,1466
2635.91,3.269531,1.647211,3.361459,1.197101,-0.5454154,-5.197425,2.07407,-46,878,1470
2635.914,3.273438,1.675941,3.289633,1.130063,-0.4719121,-5.09729,2.039981,-60,939,1472
2635.918,3.277344,1.283292,3.514688,1.307234,-0.4101268,-5.018461,2.032525,-47,943,1450
2635.922,3.28125,0.1340753,3.687071,1.747767,-0.3004046,-4.982242,2.071939,-65,936,1451
2635.926,3.285156,-0.8762778,4.065354,2.255338,-0.1960087,-4.987568,2.158226,-59,880,1482
2635.93,3.289062,-1.752556,4.544195,2.700659,-0.08735168,-5.012069,2.222142,-72,956,1437
2635.934,3.292969,-2.331952,5.104438,3.016694,0.01065264,-5.058941,2.286057,-56,920,1401
2635.938,3.296875,-2.600103,5.702988,3.308787,0.1012001,-5.11753,2.374474,-57,874,1441
2635.941,3.300781,-2.437297,6.196194,3.533842,0.2077266,-5.173989,2.514024,-66,938,1485
2635.945,3.304688,-2.207454,6.47871,3.610456,0.2567287,-5.201686,2.628007,-62,913,1478
2635.949,3.308594,-2.126051,6.612785,3.706224,0.3014698,-5.203817,2.762231,-82,954,1418
2635.953,3.3125,-2.193089,6.440402,3.859453,0.3632552,-5.199556,2.907107,-56,906,1440
2635.957,3.316406,-2.552219,6.033388,3.955221,0.4740427,-5.182511,3.082875,-60,931,1465
2635.961,3.320312,-2.853888,5.837064,4.122815,0.551807,-5.180381,3.213903,-86,916,1450
2635.965,3.324219,-3.050213,5.564125,4.22816,0.6253102,-5.164402,3.335343,-54,927,1411
2635.969,3.328125,-3.169923,5.228936,4.170699,0.7073356,-5.153749,3.441869,-44,925,1406
2635.973,3.332031,-3.366248,5.118803,4.175488,0.8170578,-5.145227,3.552657,-87,917,1446
2635.977,3.335938,-3.236961,5.085284,4.007894,0.8841695,-5.132444,3.60379,-52,984,1432
2635.98,3.339844,-3.20823,5.061342,3.859453,0.9353022,-5.098356,3.629356,-102,944,1401
2635.984,3.34375,-3.117251,4.932055,3.581726,0.9875001,-5.050419,3.642139,-78,883,1431
2635.988,3.347656,-2.75812,4.462792,3.313575,1.049285,-4.949219,3.649596,-67,886,1420
2635.992,3.351562,-2.403778,4.103662,3.20823,1.076982,-4.830974,3.619769,-105,947,1435
2635.996,3.355469,-2.097321,3.706224,3.050213,1.090831,-4.658401,3.538808,-86,939,1435
2636,3.359375,-2.111686,3.39019,3.1795,1.12705,-4.478372,3.42376,-69,901,1421
2636.004,3.363281,-2.60968,2.801216,3.892972,1.221858,-4.230165,3.229882,-91,929,1410
2636.008,3.367188,-3.217807,2.657564,4.616021,1.324124,-4.054396,3.079679,-42,921,1444
2636.012,3.371094,-3.86903,2.806004,5.391742,1.464739,-3.908455,2.945456,-73,888,1447
2636.016,3.375,-4.486734,3.303998,6.344634,1.629855,-3.791276,2.827212,-83,915,1403
2636.02,3.378906,-5.506664,4.448427,7.752425,1.848234,-3.636813,2.711098,-84,922,1446
2636.023,3.382812,-6.689399,5.516241,8.954314,1.977131,-3.533482,2.663161,-65,951,1421
2636.027,3.386719,-8.063671,6.138733,10.12747,2.080461,-3.461044,2.669553,-113,945,1408
2636.031,3.390625,-9.466673,6.847417,11.08515,2.182727,-3.416303,2.71962,-56,974,1440
2636.035,3.394531,-10.72602,8.010999,12.09551,2.303102,-3.412042,2.803776,-68,926,1442
2636.039,3.398438,-11.18571,9.141062,12.57435,2.33506,-3.415238,2.858104,-96,905,1485
2636.043,3.402344,-11.28627,10.30464,13.06276,2.305232,-3.392867,2.917759,-83,948,1432
2636.047,3.40625,-11.43471,11.41077,13.58949,2.223207,-3.367301,2.992328,-75,946,1404
2636.051,3.410156,-12.19127,12.67012,14.55675,2.05383,-3.335343,3.146791,-75,965,1420
2636.055,3.414062,-13.01009,13.20163,15.30853,1.895105,-3.331082,3.289537,-111,962,1445
2636.059,3.417969,-13.76187,13.43147,15.92623,1.751295,-3.345996,3.449326,-108,935,1433
2636.062,3.421875,-14.25029,12.96221,16.34282,1.666074,-3.379019,3.609116,-126,964,1433
2636.066,3.425781,-14.45619,12.23916,16.45295,1.607484,-3.42589,3.763579,-118,963,1434
2636.07,3.429688,-14.35563,11.31021,16.36197,1.5702,-3.482349,3.952131,-129,930,1424
2636.074,3.433594,-14.17367,10.71645,16.01242,1.563808,-3.495133,4.074636,-141,947,1386
2636.078,3.4375,-14.29817,10.10832,15.61498,1.574461,-3.483415,4.177967,-103,866,1390
2636.082,3.441406,-14.61421,9.442731,15.42824,1.593636,-3.454653,4.256797,-114,954,1415
2636.086,3.445312,-15.21755,8.561665,15.33726,1.622398,-3.412042,4.326039,-141,952,1413
2636.09,3.449219,-15.6916,8.034941,15.23191,1.638377,-3.390737,4.335626,-102,935,1418
2636.094,3.453125,-15.98848,7.814674,15.02601,1.640507,-3.357714,4.3303,-132,916,1414
2636.098,3.457031,-16.21353,7.900865,14.97813,1.614941,-3.316168,4.31219,-116,931,1437
2636.102,3.460938,-16.68759,7.8865,14.89193,1.50948,-3.242665,4.286624,-134,949,1442
2636.105,3.464844,-16.98925,7.666234,14.88236,1.413606,-3.171292,4.250405,-104,979,1397
2636.109,3.46875,-17.39627,7.450756,14.87757,1.325189,-3.112703,4.192881,-123,909,1419
2636.113,3.472656,-17.76976,7.484274,14.96855,1.225054,-3.062635,4.1279,-134,961,1422
2636.117,3.476562,-18.21987,7.991845,14.89672,1.06633,-2.98274,4.04694,-148,921,1444
2636.121,3.480469,-18.63647,8.714894,14.69082,0.9182579,-2.927347,3.992611,-125,972,1417
2636.125,3.484375,-18.96208,9.289502,14.37,0.741424,-2.865561,3.945739,-115,911,1378
2636.129,3.488281,-19.10094,9.773131,13.94862,0.5496764,-2.792058,3.886085,-93,929,1419
2636.133,3.492188,-19.18713,10.29986,13.51287,0.2972088,-2.67914,3.797668,-128,959,1417
2636.137,3.496094,-19.58936,10.09874,13.06755,0.09906959,-2.563026,3.739078,-128,956,1394
2636.141,3.5,-20.48958,9.313444,12.53125,-0.09693906,-2.413889,3.712447,-120,968,1397
2636.145,3.503906,-21.48078,8.149862,11.8082,-0.2290319,-2.293514,3.702859,-91,963,1415
2636.148,3.507812,-22.53423,5.635951,10.24239,-0.2290319,-2.234925,3.613377,-135,957,1421
2636.152,3.511719,-23.08968,2.767697,8.57603,-0.1427454,-2.153965,3.463175,-134,988,1402
2636.156,3.515625,-23.96117,0.5985504,7.043741,-0.02237055,-1.989914,3.300189,-124,960,1337
2636.16,3.519531,-25.23489,-0.7900865,5.961562,0.1512675,-1.869539,3.147856,-108,948,1402
2636.164,3.523438,-27.20771,-1.963245,4.165911,0.3984089,-1.73212,2.846387,-164,998,1404
2636.168,3.527344,-27.97385,-2.844312,3.055001,0.5539375,-1.582983,2.524677,-156,982,1377
2636.172,3.53125,-27.87808,-4.601656,2.169147,0.7286409,-1.421063,2.172074,-118,961,1350
2636.176,3.535156,-27.17419,-6.62715,1.206678,0.9235843,-1.236772,1.852495,-140,958,1417
2636.18,3.539062,-26.13511,-9.035717,0.6799533,1.156877,-0.9544769,1.522263,-125,956,1398
2636.184,3.542969,-25.95315,-9.988609,0.5554548,1.257012,-0.7233146,1.313471,-198,984,1389
2636.188,3.546875,-26.31228,-10.59195,0.5650316,1.290035,-0.4846953,1.102549,-119,936,1373
2636.191,3.550781,-26.8821,-10.67335,1.04866,1.307079,-0.2759035,0.9086706,-123,963,1415
2636.195,3.554688,-27.48065,-10.35253,2.020706,1.274056,-0.06711166,0.7041398,-136,1017,1407
2636.199,3.558594,-27.72486,-9.562441,2.710236,1.144094,0.05858954,0.592287,-167,978,1366
2636.203,3.5625,-27.99301,-8.604761,3.404555,0.938498,0.1629855,0.5177185,-161,951,1389
2636.207,3.566406,-28.21806,-7.493851,3.873818,0.6593987,0.2279666,0.4538026,-139,950,1435
2636.211,3.570312,-27.99779,-6.502652,3.591302,0.3025351,0.2748382,0.3696468,-184,991,1422
2636.215,3.574219,-27.18855,-6.124368,3.040636,-0.2258361,0.370712,0.1896171,-140,964,1372
2636.219,3.578125,-26.17341,-6.655881,2.724601,-0.5976133,0.4580637,0.01171791,-150,995,1419
2636.223,3.582031,-25.22531,-7.934384,2.269703,-0.8713863,0.5262406,-0.2183792,-154,942,1422
2636.227,3.585938,-24.10482,-9.050082,2.15957,-1.029045,0.6263755,-0.4548679,-152,960,1415
2636.23,3.589844,-22.81674,-9.782708,2.681506,-1.062069,0.7339672,-0.7435546,-151,948,1410
2636.234,3.59375,-21.99314,-9.591172,3.026271,-0.9821738,0.7840346,-0.9331716,-133,957,1360
2636.238,3.597656,-21.45684,-8.432378,3.672705,-0.8479505,0.8159926,-1.098288,-129,977,1388
2636.242,3.601562,-23.78879,-11.86088,0.4836287,-0.6988135,0.8426242,-1.244229,-184,1004,1406
2636.246,3.605469,-24.20538,-10.64462,2.5187,-0.0660464,1.274056,-1.767274,-148,994,1421
2636.25,3.609375,-15.83525,-3.476381,5.707777,0.2269013,1.107875,-2.746252,-158,986,1405
2636.254,3.613281,-3.141193,10.4866,4.783615,0.9086706,0.294013,-3.279949,-123,927,1401
2636.258,3.617188,14.95897,17.70273,6.066907,1.381648,0.06178534,-3.636813,-162,980,1403
2636.262,3.621094,35.35278,33.47573,14.57111,-0.1065264,1.219728,-4.889564,-155,986,1417
2636.266,3.625,40.32793,35.24744,15.55273,-2.11668,2.588593,-6.317018,-117,930,1413
2636.27,3.628906,25.19179,19.89103,14.21198,-3.225621,3.523895,-7.196927,-149,919,1411
2636.273,3.632812,-6.540959,-14.84405,14.14494,-2.98274,4.203533,-6.695187,-146,951,1443
2636.277,3.636719,-51.07311,-23.2046,30.50213,-1.456216,2.978479,-4.360127,-87,983,1399
2636.281,3.640625,-50.28302,-4.237737,25.81907,0.40267,1.278317,-2.21575,-112,920,1378
2636.285,3.644531,-34.11737,18.45929,6.359,1.074852,-0.05006743,-2.011219,-115,984,1410
2636.289,3.648438,-13.10586,27.3753,-2.647987,-0.03195793,1.427454,-2.854909,-149,935,1413
2636.293,3.652344,-4.34787,15.27979,13.66131,-1.211206,3.027482,-2.710033,-134,932,1413
2636.297,3.65625,-5.018247,6.861782,18.62689,-1.244229,2.424542,-1.735316,-113,900,1402
2636.301,3.660156,-4.802769,8.633491,10.80743,-1.287905,1.870604,-1.070591,-145,886,1411
2636.305,3.664062,-1.61848,13.51287,5.410896,-1.059938,2.075135,-1.316667,-122,977,1447
2636.309,3.667969,0.2346318,11.20965,5.597643,-0.7563377,2.343582,-1.784318,-138,946,1366
2636.312,3.671875,-0.9385271,7.010222,6.397307,-0.8873653,2.325472,-1.536111,-123,940,1367
2636.316,3.675781,-4.625598,4.76925,7.115567,-1.165399,2.313754,-1.041829,-104,880,1404
2636.32,3.679688,-7.896077,4.050989,7.513005,-1.249555,2.31695,-0.9757822,-104,944,1411
2636.324,3.683594,-7.94875,1.312023,8.590396,-1.095092,2.310559,-1.28897,-122,951,1422
2636.328,3.6875,-4.817134,-0.794875,8.69574,-1.022654,2.271144,-1.479652,-111,914,1409
2636.332,3.691406,-1.493982,-1.101333,8.777143,-0.8415589,2.164617,-1.499892,-157,918,1434
2636.336,3.695312,0.4118027,2.06859,9.126697,-0.6881608,2.049569,-1.432781,-126,933,1432
2636.34,3.699219,-14.09706,27.69612,43.11478,-2.926281,1.667139,-1.545699,-120,948,1409
2636.344,3.703125,-26.15905,35.15646,17.3005,-5.762015,0.680704,-1.702293,-103,906,1417
2636.348,3.707031,-28.71127,14.82969,-5.688623,-3.087136,0.5273059,-1.115332,-105,924,1378
2636.352,3.710938,-17.34839,-0.4261679,17.15206,-1.325189,0.5326322,-1.133441,-102,920,1394
2636.355,3.714844,-3.064578,3.663129,12.52167,-1.709749,-0.3036004,-1.538242,-147,918,1397
2636.359,3.71875,3.624821,2.030283,1.982399,-1.85143,0.427171,-1.124919,-90,915,1427
2636.363,3.722656,3.806781,-3.44765,14.43704,-1.812015,0.942759,-0.3589941,-106,883,1393
2636.367,3.726562,0.545878,-5.880159,13.53203,-1.61281,0.3589941,-0.1512675,-114,973,1414
2636.371,3.730469,-3.294421,-1.719037,8.930372,-1.002414,0.221575,-0.3078614,-123,970,1420
2636.375,3.734375,-6.789956,5.544971,11.88482,-0.8447547,0.3643204,-0.572047,-127,969,1399
2636.379,3.738281,-7.546524,5.971139,10.07959,-0.8916263,0.2801645,-0.5134575,-99,895,1442
2636.383,3.742188,-6.397307,4.170699,8.010999,-0.6924219,0.2854909,-0.3419499,-90,920,1388
2636.387,3.746094,-4.386177,4.730942,8.154651,-0.4825648,0.2876214,-0.2631203,-122,931,1412
2636.391,3.75,-2.762909,5.434838,8.250419,-0.4346279,0.2929477,-0.2087918,-111,914,1375
2636.395,3.753906,-2.935291,3.773262,9.179369,-0.5038701,0.3515373,-0.1512675,-134,905,1386
2636.398,3.757812,-3.586514,1.297657,10.20409,-0.4420847,0.2865561,-0.1107875,-115,926,1404
2636.402,3.761719,-4.276044,0.08140286,9.902418,-0.2854909,0.1757686,-0.1427454,-141,964,1404
2636.406,3.765625,-4.395754,1.776498,9.495404,-0.08202536,0.09906959,-0.2173139,-84,913,1380
2636.41,3.769531,-3.931279,3.596091,8.959103,-0.02556635,0.05432849,-0.2269013,-110,906,1414
2636.414,3.773438,-3.380613,4.525041,8.101978,-0.04048005,0.05858954,-0.1842907,-90,928,1420
2636.418,3.777344,-3.050213,4.654328,7.867347,-0.02876214,0.08522115,-0.1406149,-117,930,1387
2636.422,3.78125,-3.337517,4.295198,8.121132,-0.01171791,0.0809601,-0.1161138,-89,897,1395
2636.426,3.785156,-3.782839,4.046201,8.236054,-0.0149137,0.07563377,-0.1097222,-97,941,1428
2636.43,3.789062,-4.141969,3.830723,8.33661,0.01171791,0.06178534,-0.0958738,-120,952,1435
2636.434,3.792969,-4.132392,3.615245,8.350975,0.03408846,0.0330232,-0.08948221,-117,970,1387
2636.438,3.796875,-3.663129,3.849876,8.255207,0.05326322,0.01065264,-0.1012001,-107,917,1389
2636.441,3.800781,-3.29921,3.974375,8.111555,0.06817692,0.002130529,-0.1001349,-85,912,1394
2636.445,3.804688,-3.078943,4.223372,8.078036,0.07243798,0.004261058,-0.0809601,-123,926,1433
2636.449,3.808594,-3.141193,4.209007,7.996634,0.07989483,0.0181095,-0.05113269,-97,947,1390
2636.453,3.8125,-3.256114,4.223372,8.049306,0.09054748,0.03089267,-0.02450108,-95,932,1394
2636.457,3.816406,-3.39019,4.156334,8.178593,0.1001349,0.03834952,-0.02663161,-115,899,1428
2636.461,3.820312,-3.356671,4.113238,8.140286,0.1001349,0.04474111,-0.03621899,-86,912,1392
2636.465,3.824219,-3.155558,4.194641,7.996634,0.108657,0.05539375,-0.04048005,-99,952,1381
2636.469,3.828125,-2.796428,4.400543,7.958326,0.1150486,0.07243798,-0.03834952,-93,908,1409
2636.473,3.832031,-2.738967,4.548983,7.852981,0.1118528,0.07882957,-0.03834952,-114,927,1420
2636.477,3.835938,-2.901772,4.635174,7.785944,0.112918,0.09693906,-0.02450108,-84,936,1411
2636.48,3.839844,-3.241749,4.52983,7.910442,0.1033307,0.1097222,-0.003195793,-130,922,1404
2636.484,3.84375,-3.529053,4.22816,8.106767,0.08522115,0.112918,0.01171791,-82,925,1442
2636.488,3.847656,-3.524265,3.845088,8.121132,0.08415589,0.1054612,0.008522115,-46,894,1417
2636.492,3.851562,-3.41892,3.725378,8.240842,0.09161274,0.09054748,0.007456851,-62,954,1454
2636.496,3.855469,-3.174711,3.821146,8.226477,0.09480853,0.07669904,0.004261058,-95,957,1348
2636.5,3.859375,-2.896984,4.007894,8.159439,0.09480853,0.07030745,0,-113,897,1386
2636.504,3.863281,-2.863465,4.204218,8.025364,0.08735168,0.07243798,0.004261058,-85,902,1357
2636.508,3.867188,-3.112462,4.539406,7.953538,0.07563377,0.07137272,0.002130529,-131,926,1418
2636.512,3.871094,-3.356671,4.764461,7.848193,0.0660464,0.05432849,-0.003195793,-118,933,1392
2636.516,3.875,-3.605668,5.161899,7.76679,0.04687164,0.0181095,-0.0181095,-146,931,1459
2636.52,3.878906,-3.648763,5.372589,7.536947,0.02556635,-0.01171791,-0.03515373,-99,881,1391
2636.523,3.882812,-3.667917,5.530606,7.508216,0.001065264,-0.03515373,-0.05326322,-117,938,1438
2636.527,3.886719,-3.596091,5.573701,7.474698,-0.03515373,-0.0628506,-0.06391587,-95,972,1383
2636.531,3.890625,-3.5099,5.583278,7.431602,-0.07350325,-0.09267801,-0.06924219,-80,907,1435
2636.535,3.894531,-3.481169,5.468357,7.474698,-0.1235707,-0.1470065,-0.09693906,-98,873,1417
2636.539,3.898438,-3.485958,5.530606,7.503428,-0.1225054,-0.1725728,-0.1065264,-93,916,1403
2636.543,3.902344,-3.452439,5.286397,7.642292,-0.1427454,-0.1896171,-0.1161138,-135,942,1393
2636.547,3.90625,-3.342306,5.190629,7.714118,-0.1640507,-0.2109224,-0.1406149,-97,936,1398
2636.551,3.910156,-3.380613,4.793192,7.781155,-0.1565939,-0.2151834,-0.1555286,-116,928,1441
2636.555,3.914062,-3.385401,4.43885,7.953538,-0.165116,-0.1992044,-0.144876,-140,920,1414
2636.559,3.917969,-3.409343,4.333505,7.934384,-0.1672465,-0.1970739,-0.1299623,-116,946,1383
2636.562,3.921875,-3.375824,4.237737,8.030152,-0.1597897,-0.1981392,-0.108657,-79,901,1397
2636.566,3.925781,-3.490746,4.036624,8.173804,-0.1523328,-0.2066613,-0.08841695,-104,873,1425
2636.57,3.929688,-3.32794,3.974375,8.135497,-0.1459412,-0.1992044,-0.08735168,-103,929,1430
2636.574,3.933594,-3.289633,3.768473,8.111555,-0.1342233,-0.1864213,-0.08735168,-101,925,1416
2636.578,3.9375,-3.29921,3.845088,8.087613,-0.1257012,-0.1821602,-0.08415589,-112,896,1424
2636.582,3.941406,-3.371036,3.950433,8.178593,-0.1139833,-0.1874865,-0.07563377,-75,937,1396
2636.586,3.945312,-3.32794,3.998317,8.212112,-0.1107875,-0.1960087,-0.07030745,-156,939,1424
2636.59,3.949219,-3.213019,4.084508,8.12592,-0.1054612,-0.1981392,-0.07563377,-132,945,1412
2636.594,3.953125,-3.093309,4.242525,8.039729,-0.09054748,-0.1949434,-0.08841695,-87,936,1413
2636.598,3.957031,-3.069367,4.386177,8.054094,-0.08522115,-0.1864213,-0.09906959,-92,899,1434
2636.602,3.960938,-3.155558,4.448427,7.987057,-0.08628642,-0.1864213,-0.1033307,-61,932,1409
2636.605,3.964844,-3.380613,4.367024,8.087613,-0.08735168,-0.1885518,-0.1054612,-86,943,1385
2636.609,3.96875,-3.476381,4.285621,8.039729,-0.08309063,-0.1906823,-0.1139833,-112,920,1338
2636.613,3.972656,-3.428497,4.094085,8.087613,-0.07137272,-0.1992044,-0.1299623,-93,920,1414
2636.617,3.976562,-3.313575,4.022259,8.09719,-0.05965481,-0.2034655,-0.1363538,-108,947,1424
2636.621,3.980469,-3.256114,3.974375,8.06846,-0.05858954,-0.2024002,-0.1342233,-89,906,1395
2636.625,3.984375,-3.256114,3.945644,8.135497,-0.05858954,-0.1949434,-0.1235707,-123,881,1356
2636.629,3.988281,-3.227384,4.027047,8.154651,-0.05113269,-0.1864213,-0.1097222,-91,910,1416
2636.633,3.992188,-3.122039,4.175488,8.192958,-0.04474111,-0.1864213,-0.1054612,-95,977,1451
2636.637,3.996094,-3.131616,4.161122,8.18817,-0.04367584,-0.1885518,-0.1171791,-112,950,1366
2636.641,4,-3.126827,4.180276,8.116344,-0.04580637,-0.1778992,-0.128897,-104,940,1406
2636.645,4.003906,-3.064578,4.170699,8.154651,-0.03621899,-0.1597897,-0.1310275,-108,888,1413
2636.648,4.007812,-3.035848,3.98874,8.303091,-0.02556635,-0.1523328,-0.1395496,-128,948,1429
2636.652,4.011719,-3.011906,3.830723,8.30788,-0.02663161,-0.144876,-0.1416802,-124,943,1369
2636.656,4.015625,-3.08852,3.787627,8.202535,-0.02130529,-0.1331581,-0.1459412,-82,902,1400
2636.66,4.019531,-3.093309,3.912126,8.236054,-0.0149137,-0.1107875,-0.1406149,-99,906,1398
2636.664,4.023438,-3.035848,3.931279,8.30788,-0.006391587,-0.09693906,-0.1320928,-111,980,1401
2636.668,4.027344,-3.011906,3.979163,8.264784,0,-0.08735168,-0.1363538,-104,918,1404
2636.672,4.03125,-2.964022,4.050989,8.207323,0.00958738,-0.06924219,-0.1416802,-77,909,1412
2636.676,4.035156,-2.973598,4.10845,8.264784,0.01597897,-0.05432849,-0.1512675,-118,977,1415
2636.68,4.039062,-3.08852,4.132392,8.212112,0.0149137,-0.03408846,-0.1544633,-93,942,1423
2636.684,4.042969,-3.112462,4.323928,8.145074,0.02343582,-0.02130529,-0.1512675,-130,958,1398
2636.688,4.046875,-3.126827,4.390966,8.2169,0.02556635,-0.01917476,-0.1544633,-109,947,1393
2636.691,4.050781,-3.011906,4.429273,8.169016,0.0298274,-0.01278317,-0.1640507,-77,917,1441
2636.695,4.054688,-2.920926,4.46758,8.09719,0.03941478,0.005326322,-0.1864213,-110,909,1408
2636.699,4.058594,-2.954445,4.505888,8.178593,0.04687164,0.02343582,-0.1949434,-122,926,1389
2636.703,4.0625,-3.035848,4.639963,8.145074,0.04900216,0.04367584,-0.1938781,-108,930,1408
2636.707,4.066406,-3.098097,4.601656,8.274361,0.05113269,0.05645902,-0.1960087,-95,899,1426
2636.711,4.070312,-3.040636,4.218583,8.221689,0.06498113,0.08415589,-0.2098571,-109,962,1420
2636.715,4.074219,-3.083732,4.170699,8.317457,0.08735168,0.1203749,-0.2173139,-89,926,1408
2636.719,4.078125,-2.99754,4.256891,8.441955,0.1012001,0.149137,-0.2151834,-85,936,1423
2636.723,4.082031,-2.983175,4.180276,8.379706,0.1161138,0.1715076,-0.2119876,-85,902,1420
2636.727,4.085938,-2.949656,3.634398,8.331822,0.1608549,0.2226403,-0.2183792,-107,920,1402
2636.73,4.089844,-3.011906,3.792415,8.355764,0.2173139,0.2684466,-0.2237055,-92,949,1375
2636.734,4.09375,-2.873042,4.702212,8.796297,0.2769688,0.3067962,-0.2130529,-63,874,1397
2636.738,4.097656,-2.576161,5.612009,9.016563,0.2471413,0.3206446,-0.1981392,-74,929,1393
2636.742,4.101562,-2.590526,4.826711,8.609549,0.2109224,0.3494067,-0.2759035,-64,910,1408
2636.746,4.105469,-2.667141,5.051766,8.413225,0.2705772,0.3984089,-0.3398194,-116,936,1418
2636.75,4.109375,-2.748544,5.420473,8.729259,0.278034,0.4878911,-0.3323625,-117,925,1417
2636.754,4.113281,-2.844312,5.00867,8.403648,0.2141182,0.5869607,-0.2833603,-111,904,1467
2636.758,4.117188,-2.667141,5.228936,9.102755,0.2588593,0.6498113,-0.309992,-102,967,1417
2636.762,4.121094,-2.992752,4.453215,9.155427,0.2024002,0.6860303,-0.3877563,-104,956,1369
2636.766,4.125,-3.222595,4.050989,8.949526,0.2130529,0.741424,-0.4665858,-98,933,1379
2636.77,4.128906,-2.901772,4.994305,9.217676,0.2279666,0.8159926,-0.4985438,-94,906,1402
2636.773,4.132812,-2.571373,4.932055,9.107543,0.1523328,0.9257148,-0.4719121,-73,952,1407
2636.777,4.136719,-2.600103,4.127604,8.949526,0.08415589,1.082309,-0.46339,-151,924,1424
2636.781,4.140625,-2.810793,4.774038,8.872911,0.09693906,1.165399,-0.4814995,-120,946,1383
2636.785,4.144531,-2.906561,5.295974,9.270349,0.09800433,1.217597,-0.5081311,-83,868,1415
2636.789,4.148438,-2.930503,5.631162,9.054871,0.03408846,1.283644,-0.5656554,-75,936,1406
2636.793,4.152344,-2.786851,5.257667,8.963891,-0.001065264,1.443433,-0.6412892,-92,964,1423
2636.797,4.15625,-2.772486,5.09965,9.289502,-0.03195793,1.565939,-0.6817692,-78,910,1395
2636.801,4.160156,-2.873042,5.540183,9.586383,-0.08522115,1.663943,-0.7147924,-95,916,1454
2636.805,4.164062,-2.75812,6.023811,9.260772,-0.1565939,1.781122,-0.7360977,-95,946,1439
2636.809,4.167969,-2.504335,5.032612,9.275137,-0.2066613,1.976066,-0.8106662,-77,962,1420
2636.812,4.171875,-2.600103,4.697424,9.260772,-0.1960087,2.113485,-0.8937569,-108,893,1379
2636.816,4.175781,-2.734178,5.137957,9.255984,-0.1864213,2.245577,-0.9523464,-102,914,1437
2636.82,4.179688,-2.82037,5.626374,9.337386,-0.1917476,2.390453,-0.9885654,-75,929,1458
2636.824,4.183594,-2.801216,5.784391,9.524134,-0.2492719,2.605637,-1.071656,-81,952,1427
2636.828,4.1875,-2.815581,5.827487,9.428366,-0.2801645,2.772883,-1.165399,-116,893,1363
2636.832,4.191406,-2.791639,5.928043,9.706094,-0.3004046,2.943326,-1.254882,-91,887,1429
2636.836,4.195312,-2.882619,6.009446,9.969456,-0.3185141,3.095658,-1.342233,-86,914,1470
2636.84,4.199219,-2.806004,6.138733,9.821015,-0.40267,3.318299,-1.474326,-108,934,1413
2636.844,4.203125,-2.743755,6.196194,9.662998,-0.4261058,3.514307,-1.580852,-61,920,1377
2636.848,4.207031,-2.691083,6.196194,10.12268,-0.4420847,3.711381,-1.67353,-66,920,1474
2636.852,4.210938,-2.389413,6.26802,10.25197,-0.4708469,3.893542,-1.782187,-99,908,1443
2636.855,4.214844,-2.212242,6.62715,10.61589,-0.5145227,4.173706,-1.949434,-108,947,1439
2636.859,4.21875,-1.972822,6.248866,10.21845,-0.5422196,4.40913,-2.099636,-81,914,1437
2636.863,4.222656,-1.661576,6.426037,10.72602,-0.5166533,4.67438,-2.237055,-112,905,1440
2636.867,4.226562,-1.211466,6.607997,11.33894,-0.4569984,4.939631,-2.353169,-122,912,1437
2636.871,4.230469,-0.545878,7.536947,11.61188,-0.4143879,5.316735,-2.525742,-135,907,1406
2636.875,4.234375,-0.3351882,8.121132,10.93671,-0.4527374,5.633118,-2.684466,-85,902,1418
2636.879,4.238281,-0.3878607,7.474698,10.36689,-0.4964132,5.977199,-2.885801,-77,869,1477
2636.883,4.242188,-0.7517793,6.402095,9.816227,-0.4452805,6.329801,-3.138269,-55,931,1444
2636.887,4.246094,-1.82917,5.999869,9.332598,-0.2854909,6.814497,-3.554787,-75,903,1407
2636.891,4.25,-2.298434,6.38773,9.744401,-0.1193096,7.162838,-3.854127,-89,886,1418
2636.895,4.253906,-2.260126,7.273585,10.4483,0.07563377,7.438742,-4.138552,-60,891,1435
2636.898,4.257812,-1.824382,8.087613,11.20965,0.1970739,7.684818,-4.427239,-73,905,1427
2636.902,4.261719,-2.327164,9.548076,10.35253,0.2279666,8.045942,-4.857606,-64,906,1430
2636.906,4.265625,-2.542642,10.22324,6.445191,0.04367584,8.505071,-5.109008,-34,900,1434
2636.91,4.269531,-2.925714,8.537723,3.141193,0.2087918,9.176188,-5.164402,-58,890,1484
2636.914,4.273438,-6.325481,5.544971,6.378153,0.86606,9.93146,-5.062137,-72,904,1435
2636.918,4.277344,-18.3731,4.989516,10.7787,1.456216,10.29152,-4.895955,-71,908,1430
2636.922,4.28125,-30.09511,7.273585,16.28536,1.465804,9.766344,-4.822452,-39,915,1430
2636.926,4.285156,-40.99831,10.04128,19.2015,1.54996,8.823585,-5.029113,-70,912,1448
2636.93,4.289062,-44.2209,11.85609,18.16241,1.386974,7.610249,-5.285842,-51,924,1471
2636.934,4.292969,-38.5227,10.40999,16.63012,1.540372,6.474677,-5.383846,-61,902,1457
2636.938,4.296875,-27.99779,7.718906,15.95017,2.11668,5.413674,-5.19636,-36,854,1445
2636.941,4.300781,-24.50705,5.612009,20.64281,2.289253,4.85441,-4.928979,-32,910,1494
2636.945,4.304688,-22.51986,5.15711,19.1584,1.743838,4.39102,-4.957741,-49,914,1487
2636.949,4.308594,-18.60774,5.15711,15.68202,1.492435,4.165184,-5.344432,-59,974,1438
2636.953,4.3125,-15.01643,8.288726,12.50252,1.830124,3.854127,-5.911152,-11,900,1458
2636.957,4.316406,-11.67892,11.90876,9.519346,1.998436,3.838148,-5.916479,-25,923,1447
2636.961,4.320312,-9.370905,14.10664,8.054094,2.270079,3.995807,-5.552158,-34,887,1480
2636.965,4.324219,-8.255207,14.87757,7.73806,2.548113,4.111921,-5.044027,-67,940,1478
2636.969,4.328125,-7.987057,14.97813,9.691728,3.143595,4.025634,-4.366519,-20,900,1447
2636.973,4.332031,-8.719682,15.42345,12.76588,3.532417,3.805125,-3.990481,-48,916,1480
2636.977,4.335938,-8.949526,15.49048,15.76342,3.60592,3.488741,-3.798733,-66,922,1442
2636.98,4.339844,-8.604761,15.27501,15.12178,3.500459,3.147856,-3.7476,-21,945,1483
2636.984,4.34375,-7.924807,16.62055,11.78426,2.990197,2.934804,-3.931891,-3,921,1447
2636.988,4.347656,-6.531382,18.81843,7.64708,2.370213,2.69725,-4.112986,-10,937,1469
2636.992,4.351562,-5.310339,18.12411,9.619902,2.502306,2.462891,-3.876497,-51,934,1504
2636.996,4.355469,-8.274361,18.92377,16.92701,2.59818,2.026133,-3.377954,-17,971,1482
2637,4.359375,-10.05565,15.7299,12.22958,1.407214,1.116397,-3.216033,-31,956,1465
2637.004,4.363281,-10.31901,16.90306,11.76511,1.053547,0.7222493,-3.388606,-10,946,1504
2637.008,4.367188,-10.63983,22.35227,16.70674,0.5400891,0.2609898,-3.309777,-6,962,1478
2637.012,4.371094,-11.37725,29.17574,19.34036,-0.4079963,-0.4303668,-2.776079,-30,962,1436
2637.016,4.375,-9.706094,31.47896,16.42422,-1.438107,-1.116397,-1.782187,-17,917,1498
2637.02,4.378906,-7.034164,27.88766,14.7004,-1.657551,-1.497762,-1.031176,-45,938,1449
2637.023,4.382812,-3.96001,21.35628,12.78504,-1.819472,-1.901497,-0.3430151,-41,987,1490
2637.027,4.386719,-1.810016,15.57189,10.70208,-1.989914,-2.190184,0.1917476,-10,960,1459
2637.031,4.390625,-1.484405,12.98615,10.38605,-2.229598,-2.439456,0.6114618,-9,933,1474
2637.035,4.394531,-2.964022,14.04439,10.64941,-2.439456,-2.659965,0.8554073,18,894,1489
2637.039,4.398438,-4.726154,14.45619,10.55364,-2.582201,-2.939065,1.18777,7,963,1468
2637.043,4.402344,-5.650316,12.79461,9.734824,-2.542786,-3.279949,1.580852,-16,974,1439
2637.047,4.40625,-5.228936,8.647856,7.982268,-2.196575,-3.756122,2.024002,26,935,1440
2637.051,4.410156,-3.945644,5.904101,6.737283,-1.819472,-4.056527,2.267948,-24,917,1493
2637.055,4.414062,-2.451662,4.357447,5.856217,-1.446629,-4.28982,2.453304,6,955,1468
2637.059,4.417969,-1.316811,4.089296,5.185841,-1.125985,-4.44961,2.619485,-7,901,1464
2637.062,4.421875,-0.641646,4.462792,4.659116,-0.8713863,-4.547614,2.799515,-22,903,1450
2637.066,4.425781,-0.6272808,4.644751,4.084508,-0.5603291,-4.665858,3.020025,-59,891,1449
2637.07,4.429688,-0.6320692,4.582502,3.706224,-0.330232,-4.740427,3.111637,-40,922,1512
2637.074,4.433594,-0.5267244,4.611232,3.131616,-0.1246359,-4.803277,3.138269,-65,929,1452
2637.078,4.4375,-0.2011129,5.061342,2.695871,0.02556635,-4.835235,3.171292,-17,926,1466
2637.082,4.441406,0.2442086,5.635951,2.547431,0.1320928,-4.856541,3.256513,-15,898,1457
2637.086,4.445312,0.4357447,5.93762,2.293645,0.1257012,-4.840562,3.296993,-38,939,1499
2637.09,4.449219,0.4932055,6.071695,2.092532,0.06817692,-4.763863,3.293798,-36,941,1441
2637.094,4.453125,0.3256114,6.129156,2.193089,-0.0181095,-4.666923,3.255448,11,882,1460
2637.098,4.457031,-0.5027823,6.124368,2.604891,-0.1523328,-4.564658,3.211772,-15,941,1462
2637.102,4.460938,-1.455675,6.05733,2.887407,-0.2535329,-4.543353,3.208576,-28,924,1454
2637.105,4.464844,-2.461239,5.861006,3.102885,-0.3334278,-4.527374,3.225621,-48,910,1429
2637.109,4.46875,-3.236961,5.736507,3.385401,-0.386691,-4.516721,3.252252,-28,899,1441
2637.113,4.472656,-4.050989,5.415684,3.912126,-0.3920173,-4.561462,3.279949,-24,925,1441
2637.117,4.476562,-4.31914,5.137957,4.036624,-0.3483415,-4.643488,3.312972,-8,928,1447
2637.121,4.480469,-4.343082,4.912902,4.070143,-0.2844256,-4.730839,3.369431,-51,913,1452
2637.125,4.484375,-4.156334,4.759673,4.055778,-0.221575,-4.802212,3.439739,-36,878,1441
2637.129,4.488281,-3.936068,4.46758,4.074931,-0.1193096,-4.886368,3.52496,-38,907,1488
2637.133,4.492188,-3.921702,4.185065,3.806781,-0.007456851,-4.938566,3.576093,-50,898,1445
2637.137,4.496094,-3.787627,3.86903,3.888183,0.1257012,-4.964132,3.62616,-48,916,1425
2637.141,4.5,-3.682282,3.691859,3.907337,0.2588593,-4.984372,3.673032,-29,881,1443
2637.145,4.503906,-3.414132,3.720589,3.921702,0.4197142,-5.009939,3.724164,-73,911,1467
2637.148,4.507812,-3.423708,3.859453,3.639187,0.5102617,-5.011004,3.72736,-78,897,1467
2637.152,4.511719,-3.514688,4.094085,3.543418,0.5752428,-4.987568,3.719903,-50,886,1437
2637.156,4.515625,-3.620033,4.381389,3.562572,0.6530071,-4.967328,3.711381,-19,923,1418
2637.16,4.519531,-3.854665,4.414908,3.404555,0.7648599,-4.939631,3.700729,-53,885,1436
2637.164,4.523438,-3.912126,4.247314,3.136404,0.8394284,-4.906608,3.685815,-58,936,1422
2637.168,4.527344,-3.691859,4.055778,3.05979,0.9129316,-4.853345,3.651726,-51,935,1469
2637.172,4.53125,-3.342306,3.902549,3.155558,0.9757822,-4.778776,3.595267,-40,902,1450
2637.176,4.535156,-2.99754,3.663129,2.82037,1.026915,-4.639227,3.481284,-57,869,1435
2637.18,4.539062,-2.901772,3.32794,2.96881,1.089766,-4.484763,3.379019,-116,944,1422
2637.184,4.542969,-3.117251,3.256114,3.519476,1.178182,-4.320713,3.272492,-65,919,1425
2637.188,4.546875,-3.505111,3.385401,3.993528,1.272991,-4.167314,3.18088,-52,900,1433
2637.191,4.550781,-4.256891,3.701436,4.745308,1.445564,-3.991546,3.080745,-57,882,1428
2637.195,4.554688,-4.855441,4.127604,5.683835,1.609615,-3.840278,3.026416,-52,953,1438
2637.199,4.558594,-5.583278,4.458003,7.000646,1.773665,-3.699663,2.992328,-105,929,1425
2637.203,4.5625,-6.493075,4.975151,8.331822,1.918541,-3.579289,2.981675,-56,894,1445
2637.207,4.566406,-8.015787,5.66947,9.600749,2.059156,-3.490872,3.006176,-122,922,1447
2637.211,4.570312,-9.11712,6.919243,11.17134,2.228533,-3.429086,3.093528,-77,910,1463
2637.215,4.574219,-10.1179,8.078036,12.11945,2.300971,-3.40352,3.196859,-71,923,1393
2637.219,4.578125,-10.87446,9.064447,12.82813,2.33506,-3.396063,3.301254,-68,908,1415
2637.223,4.582031,-11.37725,9.998186,13.57991,2.319081,-3.390737,3.386476,-99,908,1409
2637.227,4.585938,-11.99974,11.13304,14.44661,2.214685,-3.392867,3.467436,-113,859,1398
2637.23,4.589844,-12.5935,11.79384,14.9494,2.106028,-3.408846,3.538808,-84,903,1397
2637.234,4.59375,-13.11065,12.18649,15.35641,1.999501,-3.410977,3.616573,-80,907,1396
2637.238,4.597656,-13.57034,12.18649,15.91186,1.904693,-3.42376,3.70499,-101,890,1410
2637.242,4.601562,-14.09227,11.92312,16.60618,1.826929,-3.482349,3.807255,-124,898,1426
2637.246,4.605469,-14.52802,11.59751,16.77857,1.804558,-3.539874,3.890346,-89,924,1420
2637.25,4.609375,-15.05953,11.30542,16.91743,1.815211,-3.589941,3.980893,-82,916,1447
2637.254,4.613281,-15.49527,11.39161,17.00841,1.836516,-3.650661,4.072506,-133,885,1399
2637.258,4.617188,-16.01721,11.37725,16.51999,1.866343,-3.735882,4.147074,-111,945,1376
2637.262,4.621094,-16.32846,11.23359,16.04594,1.8738,-3.752927,4.175837,-141,913,1401
2637.266,4.625,-16.50084,10.02213,15.74427,1.876996,-3.748666,4.195011,-147,868,1433
2637.27,4.628906,-16.40028,7.513005,15.55752,1.906823,-3.690076,4.205664,-144,889,1406
2637.273,4.632812,-16.25184,5.477933,15.25106,2.030394,-3.628291,4.183293,-144,953,1422
2637.277,4.636719,-16.4769,5.693412,15.14572,2.161422,-3.618703,4.16838,-122,954,1369
2637.281,4.640625,-17.23346,7.082049,15.17445,2.225337,-3.568636,4.157727,-154,938,1421
2637.285,4.644531,-18.06186,8.298303,15.30374,2.160356,-3.477023,4.151336,-150,942,1395
2637.289,4.648438,-18.67956,8.8777,15.36599,1.997371,-3.377954,4.090615,-103,919,1416
2637.293,4.652344,-18.66041,9.102755,15.51443,1.878061,-3.310842,4.020308,-127,950,1390
2637.297,4.65625,-18.23903,9.562441,15.61019,1.71401,-3.239469,3.94787,-152,941,1402
2637.301,4.660156,-17.81765,10.3621,15.55752,1.51161,-3.154248,3.90739,-164,910,1403
2637.305,4.664062,-17.91342,11.20008,15.51443,1.200553,-3.00298,3.916977,-130,958,1398
2637.309,4.667969,-18.47366,11.02769,15.39951,0.9512811,-2.863431,3.945739,-143,962,1399
2637.312,4.671875,-19.29727,10.46266,14.84884,0.7073356,-2.716424,3.965979,-129,940,1418
2637.316,4.675781,-20.21185,9.878476,14.16889,0.4964132,-2.581136,3.977697,-144,957,1433
2637.32,4.679688,-21.47599,8.805874,12.56477,0.2950782,-2.429868,3.950001,-159,979,1423
2637.324,4.683594,-22.29959,7.656657,11.0229,0.1960087,-2.302036,3.888215,-141,948,1395
2637.328,4.6875,-22.8359,5.506664,9.624691,0.1480718,-2.185923,3.768906,-162,963,1419
2637.332,4.691406,-23.20939,2.097321,8.073248,0.1864213,-2.042112,3.573962,-169,949,1405
2637.336,4.695312,-24.40649,-1.302446,5.904101,0.3632552,-1.814145,3.328951,-180,981,1413
2637.34,4.699219,-25.94357,-4.170699,4.984728,0.6167881,-1.580852,2.985936,-139,967,1410
2637.344,4.703125,-27.52853,-5.683835,4.180276,0.9289106,-1.470065,2.667422,-157,948,1390
2637.348,4.707031,-28.9459,-9.490615,2.432509,1.542503,-1.049285,1.736381,-160,966,1439
2637.352,4.710938,-28.95069,-10.18493,2.331952,1.650095,-0.9864349,1.605354,-125,1004,1439
2637.355,4.714844,-28.93153,-11.51611,2.341529,1.857821,-0.8948221,1.355016,-131,968,1383
2637.359,4.71875,-29.10392,-12.38281,2.834735,2.194445,-0.7286409,1.067395,-155,974,1408
2637.363,4.722656,-29.63543,-12.02368,3.773262,2.371279,-0.6391587,0.8564726,-182,964,1412
2637.367,4.726562,-30.29623,-10.87925,4.218583,2.409628,-0.6167881,0.6732471,-171,978,1387
2637.371,4.730469,-30.4303,-8.51857,4.496311,2.229598,-0.551807,0.4101268,-132,975,1392
2637.375,4.734375,-29.77908,-6.95755,4.778827,1.923868,-0.4740427,0.2503371,-145,974,1413
2637.379,4.738281,-28.63944,-6.248866,4.654328,1.481783,-0.3813647,0.1576591,-157,942,1421
2637.383,4.742188,-27.2508,-6.339846,4.252102,0.9502159,-0.2631203,0.1182444,-187,1002,1394
2637.387,4.746094,-25.89569,-7.230489,3.351882,0.1533981,-0.06178534,0.04261058,-148,1008,1448
2637.391,4.75,-25.3929,-8.078036,2.499547,-0.4154531,0.1139833,-0.05752428,-152,939,1430
2637.395,4.753906,-25.37854,-8.987833,1.905785,-0.870321,0.2790993,-0.1874865,-131,951,1431
2637.398,4.757812,-25.69936,-9.911995,1.790863,-1.184574,0.4175837,-0.3312972,-160,961,1402
2637.402,4.761719,-25.90526,-10.78348,1.599327,-1.384844,0.5177185,-0.5656554,-137,1009,1381
2637.406,4.765625,-25.32108,-10.93671,1.666364,-1.365669,0.5486112,-0.7861652,-137,975,1441
2637.41,4.769531,-24.30594,-10.33337,2.020706,-1.245294,0.5795039,-1.024784,-152,1000,1401
2637.414,4.773438,-23.09447,-9.074024,2.485181,-1.111071,0.6317018,-1.235707,-161,971,1406
2637.418,4.777344,-21.52387,-6.818686,3.366248,-0.9906959,0.7265103,-1.429585,-141,964,1382
2637.422,4.78125,-20.28846,-5.042189,3.883395,-0.9193232,0.8032094,-1.536111,-149,979,1441
2637.426,4.785156,-20.9349,-6.584055,0.6607997,-0.8287757,0.8863,-1.626659,-159,958,1418
2637.43,4.789062,-15.3181,6.737283,9.562441,-0.8181231,1.171791,-1.467934,-148,966,1447
2637.434,4.792969,5.722142,11.89439,8.968679,-0.7435546,0.628506,-1.355016,-170,942,1370
2637.438,4.796875,16.77378,11.23838,1.527501,0.6029397,0.2109224,-1.854625,-156,963,1405
2637.441,4.800781,31.51248,18.7035,14.76265,1.035437,0.5741775,-3.331082,-123,956,1386
2637.445,4.804688,40.61524,37.69431,16.56788,-0.3792341,1.009871,-5.302886,-176,975,1406
2637.449,4.808594,36.73184,45.13549,10.59195,-3.407781,2.322276,-7.314106,-137,966,1430
2637.453,4.8125,10.77391,13.98693,5.951985,-4.483698,3.74547,-7.102118,-149,932,1443
2637.457,4.816406,-25.91963,-34.12695,13.5033,-4.228035,4.656271,-6.228601,-180,967,1449
2637.461,4.820312,-50.88157,-43.92881,28.19891,-2.690858,4.053331,-4.428304,-181,959,1399
2637.465,4.824219,-42.20499,-6.924031,18.9525,1.186705,0.1885518,-2.451173,-114,988,1396
2637.469,4.828125,-22.20861,22.29002,1.94888,1.215467,-0.1725728,-2.341451,-111,948,1440
2637.473,4.832031,-5.918467,30.86126,-0.8283938,-1.090831,2.133725,-2.753709,-130,908,1404
2637.477,4.835938,-1.053449,16.27578,13.93425,-2.093245,3.308711,-2.430933,-130,974,1419
2637.48,4.839844,-4.434061,2.528277,17.71709,-1.595766,2.787797,-1.603223,-119,955,1411
2637.484,4.84375,-4.510676,6.789956,10.35253,-1.656486,2.249838,-1.332646,-148,936,1442
2637.488,4.847656,-1.599327,12.23437,5.889736,-1.128115,2.490588,-1.580852,-117,926,1445
2637.492,4.851562,-0.5554548,9.92636,6.703765,-0.6796387,2.654639,-1.753425,-137,941,1375
2637.496,4.855469,-2.221819,4.434061,7.642292,-0.882039,2.714294,-1.504153,-129,930,1386
2637.5,4.859375,-5.980716,1.312023,8.437167,-1.131311,2.706837,-1.003479,-148,921,1446
2637.504,4.863281,-7.771579,0.9193734,8.437167,-0.9960222,2.645052,-0.9811085,-131,938,1434
2637.508,4.867188,-7.005434,0.2920926,8.528146,-0.8341021,2.629073,-1.276187,-161,968,1375
2637.512,4.871094,-4.434061,-0.9624691,8.231265,-0.9033442,2.716424,-1.559547,-112,945,1381
2637.516,4.875,-14.25029,21.16953,46.61511,-3.172357,2.354234,-1.946238,-94,923,1412
2637.52,4.878906,-20.85828,32.9107,22.18467,-5.925001,1.199488,-2.087918,-140,909,1422
2637.523,4.882812,-26.43199,16.88391,-1.977611,-3.187271,0.9875001,-1.417867,-152,938,1390
2637.527,4.886719,-20.93969,0.9576807,14.82011,-1.122789,0.8404936,-1.087635,-105,957,1435
2637.531,4.890625,-9.921572,4.429273,9.662998,-1.69377,-0.1384844,-1.48924,-124,946,1404
2637.535,4.894531,-3.663129,2.035071,3.639187,-1.600027,0.2482066,-1.340103,-130,919,1467
2637.539,4.898438,2.135628,-0.5841852,12.16254,-1.497762,0.8532768,-1.000283,-87,912,1385
2637.543,4.902344,1.771709,-2.197877,13.59907,-1.500958,0.3941478,-0.556068,-83,922,1417
2637.547,4.90625,0.521936,1.690306,8.422801,-0.7893609,0.1470065,-0.5123922,-113,895,1436
2637.551,4.910156,-2.671929,4.644751,9.983821,-0.7126619,0.330232,-0.608266,-133,939,1438
2637.555,4.914062,-6.526594,6.617573,10.06044,-0.7946873,0.3824299,-0.5901565,-122,910,1388
2637.559,4.917969,-9.198523,5.406107,9.423578,-0.6924219,0.2790993,-0.4154531,-113,951,1406
2637.562,4.921875,-8.489839,4.592079,8.609549,-0.4356932,0.1480718,-0.2279666,-97,952,1433
2637.566,4.925781,-5.837064,5.525817,8.681375,-0.3131877,0.0777643,-0.2524677,-133,926,1426
2637.57,4.929688,-3.543418,4.999093,8.303091,-0.2908172,0.07563377,-0.2876214,-128,965,1362
2637.574,4.933594,-1.915361,3.1795,8.868123,-0.3312972,0.144876,-0.2492719,-92,948,1408
2637.578,4.9375,-2.054225,1.244985,9.069236,-0.2386192,0.1075917,-0.1299623,-109,915,1415
2637.582,4.941406,-3.361459,2.351106,8.480262,-0.1033307,0.0330232,-0.07243798,-123,913,1436
2637.586,4.945312,-4.462792,4.338293,8.283938,-0.02237055,0.0181095,-0.05326322,-143,924,1401
2637.59,4.949219,-4.908113,5.104438,8.384494,-0.05006743,0.05539375,-0.06711166,-86,941,1437
2637.594,4.953125,-4.386177,4.386177,8.202535,-0.1033307,0.05219796,-0.1107875,-73,898,1408
2637.598,4.957031,-3.734955,3.758897,8.054094,-0.04687164,0.02343582,-0.1182444,-145,903,1408
2637.602,4.960938,-3.32794,3.797204,8.12592,0.008522115,0.005326322,-0.09480853,-106,912,1413
2637.605,4.964844,-3.160346,4.19943,8.106767,0.01278317,0.01065264,-0.05539375,-124,940,1381
2637.609,4.96875,-3.160346,4.424485,7.967903,-0.01917476,0.02769688,-0.02343582,-136,959,1417
2637.613,4.972656,-3.433285,4.328717,7.824251,-0.02663161,0.03089267,-0.02450108,-124,910,1443
2637.617,4.976562,-3.442862,4.371812,7.963115,-0.0181095,0.0298274,-0.03728426,-109,939,1404
2637.621,4.980469,-3.481169,4.563348,7.85777,-0.006391587,0.02769688,-0.04048005,-120,933,1437
2637.625,4.984375,-3.495534,4.702212,7.934384,0,0.03515373,-0.02556635,-90,917,1444
2637.629,4.988281,-3.557784,4.563348,7.991845,0,0.04261058,0,-120,886,1418
2637.633,4.992188,-3.505111,4.400543,7.972692,0.004261058,0.03834952,0.008522115,-106,958,1401
2637.637,4.996094,-3.404555,4.414908,7.953538,0.00958738,0.02769688,0.006391587,-120,950,1420
2637.641,5,-3.165135,4.544195,7.934384,0.01597897,0.02024002,-0.006391587,-126,942,1411
2637.645,5.003906,-2.96881,4.754884,7.829039,0.01384844,0.02343582,-0.01597897,-109,889,1452
2637.648,5.007812,-2.916138,4.860229,7.795521,0.002130529,0.02343582,-0.01384844,-110,942,1386
2637.652,5.011719,-3.002329,4.750096,7.795521,-0.01597897,0.01597897,-0.01278317,-99,934,1402
2637.656,5.015625,-3.102885,4.654328,7.694964,-0.01917476,0.01384844,-0.02024002,-129,927,1417
2637.66,5.019531,-3.256114,4.601656,7.747637,-0.02237055,0.01917476,-0.02556635,-86,891,1442
2637.664,5.023438,-3.284845,4.553772,7.929596,-0.0330232,0.01171791,-0.0298274,-122,937,1411
2637.668,5.027344,-3.20823,4.424485,7.982268,-0.04580637,0,-0.03195793,-123,909,1389
2637.672,5.03125,-3.174711,4.242525,7.987057,-0.05539375,-0.00958738,-0.03728426,-109,932,1416
2637.676,5.035156,-3.174711,4.146757,7.972692,-0.06072007,-0.006391587,-0.03834952,-146,929,1403
2637.68,5.039062,-3.280056,4.180276,8.015787,-0.06178534,-0.01384844,-0.04154531,-145,920,1363
2637.684,5.042969,-3.366248,4.309563,7.94875,-0.0660464,-0.0298274,-0.04048005,-74,959,1398
2637.688,5.046875,-3.557784,4.371812,7.943961,-0.07030745,-0.04261058,-0.05006743,-103,885,1419
2637.691,5.050781,-3.663129,4.520253,7.800309,-0.06391587,-0.06498113,-0.06924219,-72,926,1462
2637.695,5.054688,-3.77805,4.611232,7.800309,-0.0660464,-0.0809601,-0.08735168,-115,911,1402
2637.699,5.058594,-3.62961,4.850653,7.805097,-0.07563377,-0.108657,-0.1001349,-135,966,1420
2637.703,5.0625,-3.543418,4.994305,7.699753,-0.08948221,-0.1352886,-0.1171791,-91,949,1416
2637.707,5.066406,-3.371036,5.109226,7.690176,-0.112918,-0.149137,-0.1331581,-127,920,1420
2637.711,5.070312,-3.366248,5.056554,7.675811,-0.1299623,-0.1576591,-0.1459412,-114,910,1418
2637.715,5.074219,-3.433285,4.845864,7.762002,-0.1480718,-0.1821602,-0.1640507,-95,924,1384
2637.719,5.078125,-3.624821,4.745308,7.819463,-0.1533981,-0.2098571,-0.1778992,-112,901,1440
2637.723,5.082031,-3.687071,4.639963,7.972692,-0.1640507,-0.2460761,-0.1842907,-123,922,1422
2637.727,5.085938,-3.41892,4.635174,7.967903,-0.1736381,-0.2631203,-0.1949434,-119,932,1417
2637.73,5.089844,-3.126827,4.601656,7.814674,-0.1747034,-0.2631203,-0.1928129,-107,940,1431
2637.734,5.09375,-3.055001,4.592079,7.838616,-0.1778992,-0.241815,-0.1885518,-78,943,1446
2637.738,5.097656,-3.198653,4.271256,8.063671,-0.1874865,-0.2024002,-0.1629855,-127,916,1436
2637.742,5.101562,-3.438074,3.936068,8.149862,-0.1896171,-0.1928129,-0.144876,-141,908,1418
2637.746,5.105469,-3.490746,3.74932,8.173804,-0.1747034,-0.1928129,-0.1331581,-108,956,1421
2637.75,5.109375,-3.514688,3.888183,8.073248,-0.1565939,-0.1917476,-0.1225054,-108,917,1399
2637.754,5.113281,-3.347094,4.074931,8.078036,-0.1512675,-0.1874865,-0.108657,-102,962,1408
2637.758,5.117188,-3.241749,4.213795,8.078036,-0.1597897,-0.1842907,-0.1012001,-107,935,1414
2637.762,5.121094,-3.074155,4.357447,7.958326,-0.1597897,-0.1821602,-0.09374327,-102,983,1395
2637.766,5.125,-2.978387,4.496311,7.891289,-0.1587244,-0.1800297,-0.1001349,-123,908,1448
2637.77,5.128906,-3.078943,4.52983,7.94875,-0.1565939,-0.1821602,-0.1118528,-126,903,1396
2637.773,5.132812,-3.265691,4.285621,7.958326,-0.1597897,-0.181095,-0.1214401,-102,907,1428
2637.777,5.136719,-3.529053,4.256891,7.958326,-0.165116,-0.1832255,-0.1278317,-98,944,1393
2637.781,5.140625,-3.5099,4.280833,7.991845,-0.1629855,-0.1938781,-0.1246359,-101,903,1431
2637.785,5.144531,-3.519476,4.410119,7.915231,-0.1608549,-0.2162487,-0.1246359,-93,913,1414
2637.789,5.148438,-3.337517,4.55856,7.915231,-0.1565939,-0.241815,-0.1438107,-83,952,1396
2637.793,5.152344,-3.241749,4.55856,7.829039,-0.1565939,-0.2482066,-0.1587244,-104,897,1412
2637.797,5.15625,-3.256114,4.424485,7.939173,-0.1533981,-0.2396845,-0.1715076,-94,913,1404
2637.801,5.160156,-3.275268,4.400543,7.991845,-0.1512675,-0.237554,-0.169377,-137,936,1419
2637.805,5.164062,-3.375824,4.458003,7.967903,-0.1459412,-0.2482066,-0.165116,-119,941,1399
2637.809,5.167969,-3.361459,4.52983,8.030152,-0.144876,-0.2609898,-0.1629855,-58,908,1389
2637.812,5.171875,-3.303998,4.525041,7.934384,-0.149137,-0.2695119,-0.169377,-74,909,1446
2637.816,5.175781,-3.351882,4.453215,7.943961,-0.1523328,-0.2695119,-0.1768339,-148,905,1457
2637.82,5.179688,-3.323152,4.247314,8.025364,-0.1512675,-0.2599245,-0.1747034,-63,943,1402
2637.824,5.183594,-3.193865,4.127604,8.12592,-0.149137,-0.2556635,-0.1672465,-77,948,1431
2637.828,5.1875,-3.145981,3.888183,8.202535,-0.1406149,-0.2482066,-0.1555286,-143,904,1423
2637.832,5.191406,-3.150769,3.787627,8.327033,-0.1342233,-0.2322276,-0.1406149,-119,915,1459
2637.836,5.195312,-3.050213,3.667917,8.279149,-0.1246359,-0.2130529,-0.1267665,-100,917,1391
2637.84,5.199219,-3.107674,3.806781,8.264784,-0.1054612,-0.1992044,-0.1150486,-129,934,1426
2637.844,5.203125,-3.098097,3.854665,8.322245,-0.08841695,-0.1885518,-0.108657,-128,922,1425
