t_native_s,t_opt_s,ax,ay,az,gx,gy,gz,mx,my,mz
2635.223,0.000625,-9.916783,1.292869,0.617704,0,0.1832255,0.07882957,238,34,208
2635.227,0.00453125,-9.959879,1.302446,0.5602432,0,0.1789644,0.0809601,119,45,232
2635.23,0.0084375,-9.792285,1.331176,0.5267244,0.001065264,0.1917476,0.08415589,155,119,122
2635.234,0.01234375,-9.931148,1.316811,0.5650316,0.005326322,0.1885518,0.08841695,197,118,165
2635.238,0.01625,-9.859322,1.307234,0.5793968,0.008522115,0.2002697,0.09374327,177,37,201
2635.242,0.02015625,-9.859322,1.331176,0.5793968,0.01597897,0.2034655,0.09374327,162,20,218
2635.246,0.0240625,-9.888053,1.383849,0.5554548,0.02024002,0.2098571,0.09906959,169,98,184
2635.25,0.02796875,-9.902418,1.417367,0.6081272,0.02663161,0.2141182,0.1022654,237,124,136
2635.254,0.031875,-9.916783,1.417367,0.5793968,0.03408846,0.2173139,0.1043959,194,21,166
2635.258,0.03578125,-9.993398,1.479617,0.5650316,0.03621899,0.2332929,0.108657,193,44,209
2635.262,0.0396875,-9.921572,1.503559,0.5746084,0.03941478,0.2300971,0.1097222,147,157,201
2635.266,0.04359375,-9.902418,1.527501,0.6129156,0.03834952,0.241815,0.1150486,145,156,138
2635.27,0.0475,-9.945514,1.556231,0.6512229,0.04154531,0.2460761,0.1161138,219,53,172
2635.273,0.05140625,-9.883264,1.513135,0.6751649,0.04900216,0.2545982,0.1193096,252,46,224
2635.277,0.0553125,-9.902418,1.446098,0.6512229,0.05432849,0.2609898,0.1203749,134,42,223
2635.281,0.05921875,-9.921572,1.431733,0.6895301,0.06178534,0.2673814,0.1246359,161,136,126
2635.285,0.063125,-9.892841,1.359907,0.7374141,0.07137272,0.2748382,0.1267665,212,130,157
2635.289,0.06703125,-9.849746,1.264138,0.7182605,0.08735168,0.2801645,0.1299623,247,39,193
2635.293,0.0709375,-9.873688,1.25935,0.7086837,0.09693906,0.2972088,0.1342233,119,28,212
2635.297,0.07484375,-9.77792,1.201889,0.7757213,0.1065264,0.3004046,0.1416802,138,92,172
2635.301,0.07875,-9.787496,1.244985,0.7661445,0.1171791,0.3131877,0.1459412,208,122,101
2635.305,0.08265625,-9.667786,1.240196,0.8379706,0.1267665,0.3227751,0.1523328,246,37,128
2635.309,0.0865625,-9.691728,1.201889,0.8283938,0.1320928,0.3281014,0.1629855,153,68,215
2635.312,0.09046875,-9.658209,1.163582,0.842759,0.1395496,0.3472762,0.1736381,141,127,224
2635.316,0.094375,-9.677363,1.120486,0.8475474,0.144876,0.3536678,0.1821602,159,114,124
2635.32,0.09828125,-9.71567,1.130063,0.7757213,0.144876,0.3685815,0.1928129,226,55,147
2635.324,0.1021875,-9.682152,1.067814,0.7613561,0.1416802,0.3824299,0.2109224,228,47,198
2635.328,0.1060938,-9.682152,1.072602,0.8236054,0.1395496,0.3941478,0.2194445,141,127,215
2635.332,0.11,-9.701305,1.125275,0.7805097,0.1352886,0.4079963,0.2311624,134,102,142
2635.336,0.1139063,-9.68694,1.144428,0.7900865,0.1257012,0.4218447,0.2396845,233,126,126
2635.34,0.1178125,-9.720459,1.101333,0.8331822,0.112918,0.4452805,0.2567287,203,30,213
2635.344,0.1217188,-9.739612,1.063026,0.8092402,0.1065264,0.4601942,0.2684466,140,52,202
2635.348,0.125625,-9.730036,1.096544,0.8283938,0.09161274,0.4836301,0.2822951,135,146,172
2635.352,0.1295313,-9.753978,1.063026,0.8236054,0.08202536,0.4974785,0.2929477,211,161,131
2635.355,0.1334375,-9.71567,1.01993,0.9193734,0.06391587,0.5219796,0.314253,221,36,200
2635.359,0.1373438,-9.758766,1.000776,0.9672575,0.04900216,0.5454154,0.3291667,120,1,209
2635.363,0.14125,-9.730036,0.9576807,1.010353,0.04154531,0.5656554,0.3408846,156,138,219
2635.367,0.1451563,-9.691728,0.9193734,1.130063,0.0330232,0.5848302,0.3568636,160,114,163
2635.371,0.1490625,-9.600749,0.8954314,1.206678,0.0298274,0.6093313,0.3760383,208,65,179
2635.375,0.1529688,-9.653421,0.8379706,1.340753,0.02343582,0.6391587,0.3994742,193,63,244
2635.379,0.156875,-9.59596,0.8092402,1.383849,0.02237055,0.6625945,0.4175837,149,95,210
2635.383,0.1607813,-9.648633,0.794875,1.37906,0.02130529,0.6870956,0.4303668,164,142,160
2635.387,0.1646875,-9.639056,0.7852981,1.446098,0.02343582,0.7105314,0.4484763,220,54,137
2635.391,0.1685938,-9.543288,0.6607997,1.570596,0.03515373,0.7446198,0.4761732,218,2,232
2635.395,0.1725,-9.552865,0.5027823,1.551443,0.05432849,0.7584683,0.4985438,130,72,222
2635.398,0.1764063,-9.643844,0.4261679,1.527501,0.07563377,0.7850999,0.5145227,126,137,166
2635.402,0.1803125,-9.782708,0.5554548,1.489193,0.09267801,0.793622,0.5219796,179,100,164
2635.406,0.1842188,-9.964667,0.8954314,1.254562,0.1022654,0.8117315,0.5241101,213,49,208
2635.41,0.188125,-9.993398,1.096544,0.9959879,0.1107875,0.8266452,0.5336975,146,66,205
2635.414,0.1920313,-9.955091,1.49877,0.6464344,0.1150486,0.829841,0.551807,192,117,187
2635.418,0.1959375,-9.758766,1.786074,0.320823,0.1012001,0.8383631,0.5763081,230,146,140
2635.422,0.1998438,-9.720459,1.963245,0.05267244,0.06711166,0.8511463,0.592287,222,71,138
2635.426,0.20375,-9.768343,1.900996,-0.1819593,0.006391587,0.8649947,0.6018744,171,107,220
2635.43,0.2076563,-9.840169,1.599327,-0.3351882,-0.03089267,0.8767126,0.6061355,129,135,222
2635.434,0.2115625,-9.840169,1.403002,-0.3974375,-0.05326322,0.8905611,0.6093313,141,104,135
2635.438,0.2154688,-9.844957,1.273715,-0.4261679,-0.05326322,0.8958874,0.6189186,193,48,162
2635.441,0.219375,-9.888053,1.355118,-0.5554548,-0.03941478,0.9097358,0.6317018,246,35,216
2635.445,0.2232813,-9.974244,1.479617,-0.6847417,-0.02556635,0.9097358,0.6423545,137,77,205
2635.449,0.2271875,-9.998186,1.613692,-1.005565,-0.01917476,0.9118664,0.6530071,141,150,148
2635.453,0.2310938,-10.08438,1.661576,-1.235408,-0.01917476,0.9139969,0.6615292,184,125,177
2635.457,0.235,-10.16578,1.8579,-1.503559,-0.02343582,0.9150622,0.6679208,226,27,233
2635.461,0.2389063,-10.18493,2.044648,-1.642422,-0.03834952,0.9193232,0.6775082,138,61,198
2635.465,0.2428125,-10.28549,2.063802,-1.771709,-0.05219796,0.9150622,0.6860303,132,149,139
2635.469,0.2467188,-10.29986,2.193089,-1.872266,-0.05965481,0.9182579,0.6977482,199,115,122
2635.473,0.250625,-10.3238,2.236184,-1.958457,-0.0660464,0.9182579,0.7084008,197,51,124
2635.477,0.2545313,-10.35253,2.197877,-1.982399,-0.06498113,0.9161274,0.7233146,199,58,251
2635.48,0.2584375,-10.39562,2.092532,-2.054225,-0.05858954,0.9235843,0.7297061,136,144,225
2635.484,0.2623438,-10.41478,1.991976,-2.059013,-0.04474111,0.9193232,0.7329019,169,134,179
2635.488,0.26625,-10.46266,1.958457,-1.953669,-0.02556635,0.9235843,0.7382283,201,36,131
2635.492,0.2701563,-10.48181,1.953669,-2.130839,0.006391587,0.9182579,0.7424893,221,83,179
2635.496,0.2740625,-10.46745,2.049437,-2.097321,0.01917476,0.9203885,0.741424,130,167,191
2635.5,0.2779688,-10.46745,2.116474,-2.035071,0.02663161,0.9235843,0.7382283,150,144,163
2635.504,0.281875,-10.63026,2.154781,-2.011129,0.03941478,0.9214537,0.7360977,264,156,140
2635.508,0.2857813,-10.89841,2.001553,-1.910573,0.07030745,0.9118664,0.7360977,236,104,218
2635.512,0.2896875,-11.066,1.608904,-1.958457,0.1342233,0.8894958,0.7318367,123,36,201
2635.516,0.2935938,-11.08994,1.766921,-1.82917,0.181095,0.8756474,0.716923,141,136,146
2635.52,0.2975,-11.43471,2.298434,-1.666364,0.2002697,0.8681905,0.6913566,205,144,122
2635.523,0.3014063,-11.60709,3.021482,-1.656788,0.2034655,0.850081,0.664725,227,44,159
2635.527,0.3053125,-11.65976,3.773262,-1.762132,0.1672465,0.8415589,0.6625945,144,89,232
2635.531,0.3092188,-11.41555,3.983952,-1.987187,0.1214401,0.8170578,0.6732471,118,139,200
2635.535,0.313125,-11.24796,3.926491,-2.006341,0.06498113,0.8191884,0.6785734,141,150,172
2635.539,0.3170313,-11.18571,3.912126,-2.054225,0.01917476,0.8000136,0.6711166,232,71,161
2635.543,0.3209375,-11.15219,3.912126,-2.212242,-0.04154531,0.7904262,0.6636597,218,70,249
2635.547,0.3248438,-11.05163,3.849876,-2.48997,-0.0809601,0.7840346,0.6583334,88,145,224
2635.551,0.32875,-10.78827,3.892972,-2.743755,-0.1097222,0.7616641,0.6530071,143,130,163
2635.555,0.3326563,-10.47703,3.89776,-2.815581,-0.1278317,0.7467504,0.644485,166,172,145
2635.559,0.3365625,-10.16578,4.050989,-3.078943,-0.1363538,0.7254451,0.6221144,214,63,215
2635.562,0.3404688,-9.682152,4.343082,-3.351882,-0.1416802,0.7094661,0.5826996,146,83,214
2635.566,0.344375,-9.370905,4.544195,-3.586514,-0.1416802,0.6860303,0.5613944,114,146,124
2635.57,0.3482813,-9.126697,4.788403,-3.86903,-0.1406149,0.6764429,0.5454154,224,176,175
2635.574,0.3521875,-8.959103,4.812345,-4.055778,-0.1342233,0.6498113,0.5273059,230,87,219
2635.578,0.3560938,-8.863335,4.750096,-4.323928,-0.1182444,0.628506,0.499609,96,92,225
2635.582,0.36,-8.868123,4.707,-4.405331,-0.09800433,0.6072007,0.4772385,136,156,198
2635.586,0.3639063,-8.949526,4.639963,-4.414908,-0.07030745,0.5858954,0.4623248,118,162,168
2635.59,0.3678125,-8.983045,4.419696,-4.395754,-0.02769688,0.5667207,0.4516721,202,75,166
2635.594,0.3717188,-8.949526,4.127604,-4.333505,0.04474111,0.5262406,0.4388889,189,33,224
2635.598,0.375625,-9.02614,3.797204,-4.357447,0.1075917,0.5209143,0.4197142,133,148,217
2635.602,0.3795313,-9.064447,3.715801,-4.247314,0.1789644,0.4900216,0.4016047,130,141,203
2635.605,0.3834375,-9.198523,3.907337,-4.146757,0.2471413,0.4814995,0.3973436,186,100,177
2635.609,0.3873438,-9.35654,4.065354,-4.007894,0.3078614,0.4569984,0.4005394,195,83,252
2635.613,0.39125,-9.509769,4.256891,-3.811569,0.3675162,0.4452805,0.4101268,148,96,214
2635.617,0.3951563,-9.562441,4.328717,-3.739743,0.3952131,0.4324974,0.4165184,178,130,184
2635.621,0.3990625,-9.629479,4.266467,-3.572149,0.4111921,0.427171,0.4175837,232,130,148
2635.625,0.4029688,-9.634267,4.103662,-3.452439,0.4218447,0.4175837,0.4058658,207,75,260
2635.629,0.406875,-9.68694,4.065354,-3.275268,0.4261058,0.4154531,0.3760383,131,80,213
2635.633,0.4107813,-9.739612,4.098873,-3.031059,0.4197142,0.4122573,0.3600594,104,171,222
2635.637,0.4146875,-9.768343,4.050989,-2.782062,0.4090615,0.4133226,0.3611246,235,165,156
2635.641,0.4185938,-9.68694,3.835511,-2.523489,0.3920173,0.4133226,0.3557983,181,92,202
2635.645,0.4225,-9.648633,3.557784,-2.264915,0.3749731,0.4207795,0.3462109,208,110,215
2635.648,0.4264063,-9.701305,3.198653,-2.044648,0.3472762,0.4346279,0.3281014,179,163,238
2635.652,0.4303125,-9.691728,2.964022,-1.781286,0.3195793,0.4399542,0.3110572,110,167,155
2635.656,0.4342188,-9.83538,3.031059,-1.613692,0.298274,0.4612595,0.3014698,238,65,173
2635.66,0.438125,-9.859322,3.184288,-1.431733,0.2790993,0.4697816,0.298274,207,124,242
2635.664,0.4420313,-10.17057,3.366248,-1.25935,0.2407498,0.4921522,0.3004046,146,79,226
2635.668,0.4459375,-10.25197,3.356671,-1.101333,0.205596,0.5091964,0.3057309,137,121,184
2635.672,0.4498438,-10.35732,3.332729,-1.039084,0.1661813,0.5230448,0.3185141,186,107,155
2635.676,0.45375,-10.49618,3.155558,-0.9576807,0.1193096,0.5432849,0.3259709,156,75,216
2635.68,0.4576563,-10.55364,2.94008,-0.8810662,0.06391587,0.5603291,0.3270362,108,70,222
2635.684,0.4615625,-10.58237,2.863465,-0.7900865,0.03515373,0.5805691,0.330232,114,187,180
2635.688,0.4654688,-10.45787,2.815581,-0.7852981,0.01278317,0.5933523,0.3366236,170,143,145
2635.691,0.469375,-10.37168,2.762909,-0.7230489,-0.006391587,0.6157228,0.3462109,229,84,169
2635.695,0.4732813,-10.24718,2.671929,-0.818817,-0.01917476,0.6231797,0.3526025,119,86,256
2635.699,0.4771875,-10.09395,2.753332,-0.9576807,-0.02024002,0.6380934,0.3653857,134,155,217
2635.703,0.4810938,-10.04128,2.892196,-1.106121,-0.02237055,0.6572682,0.3685815,155,177,174
2635.707,0.485,-10.00776,2.959233,-1.211466,-0.02343582,0.6572682,0.3728426,201,105,159
2635.711,0.4889063,-10.02213,2.96881,-1.412579,-0.02663161,0.6711166,0.3802994,229,105,227
2635.715,0.4928125,-9.940725,3.169923,-1.537077,-0.01384844,0.6689861,0.3898868,156,136,217
2635.719,0.4967188,-9.80665,3.39019,-1.637634,-0.005326322,0.6838998,0.4005394,159,161,154
2635.723,0.500625,-9.782708,3.605668,-1.752556,0.003195793,0.6785734,0.4133226,175,198,133
2635.727,0.5045313,-9.677363,3.758897,-1.915361,0.01065264,0.684965,0.4303668,196,112,225
2635.73,0.5084375,-9.787496,3.873818,-2.207454,0.02130529,0.6860303,0.4516721,146,95,227
2635.734,0.5123438,-9.801862,3.916914,-2.336741,0.02876214,0.6838998,0.4697816,136,154,168
2635.738,0.51625,-9.797073,3.974375,-2.346318,0.04474111,0.6870956,0.4857606,222,123,172
2635.742,0.5201563,-9.825804,4.055778,-2.422932,0.0628506,0.6838998,0.499609,199,108,246
2635.746,0.5240625,-9.950302,3.926491,-2.403778,0.07669904,0.680704,0.5166533,146,70,218
2635.75,0.5279688,-10.01255,3.557784,-2.116474,0.09054748,0.6657903,0.5294364,147,207,274
2635.754,0.531875,-10.12268,3.189077,-1.915361,0.1001349,0.6455502,0.5305017,97,137,165
2635.758,0.5357813,-10.16099,2.748544,-1.70946,0.112918,0.6253102,0.5230448,200,75,142
2635.762,0.5396875,-10.24718,2.432509,-1.604115,0.1310275,0.5954828,0.5091964,209,83,254
2635.766,0.5435938,-10.04607,2.269703,-1.546654,0.1757686,0.5656554,0.4868258,150,172,240
2635.77,0.5475,-9.979033,2.293645,-1.604115,0.2109224,0.5379585,0.4687164,142,182,128
2635.773,0.5514063,-9.902418,2.355894,-1.546654,0.2332929,0.519849,0.4527374,203,117,205
2635.777,0.5553125,-9.868899,2.394202,-1.561019,0.237554,0.4900216,0.4388889,188,93,226
2635.781,0.5592188,-9.907206,2.284068,-1.450886,0.2386192,0.4623248,0.42291,176,83,218
2635.785,0.563125,-9.92636,2.082955,-1.312023,0.2450108,0.4186489,0.3845605,150,163,180
2635.789,0.5670313,-10.06522,1.838747,-1.23062,0.2471413,0.3920173,0.3589941,213,175,159
2635.793,0.5709375,-10.1562,1.73819,-1.221043,0.2450108,0.350472,0.3291667,198,79,250
2635.797,0.5748438,-10.18015,1.570596,-1.163582,0.2386192,0.3185141,0.2929477,153,123,225
2635.801,0.57875,-10.18015,1.426944,-1.04866,0.2290319,0.2599245,0.2428803,124,197,242
2635.805,0.5826563,-10.18015,1.25935,-0.9624691,0.2183792,0.2226403,0.2066613,191,177,171
2635.809,0.5865625,-10.14184,1.077391,-0.9720459,0.2119876,0.1757686,0.1715076,230,97,155
2635.812,0.5904688,-10.0317,0.9337386,-1.130063,0.2109224,0.1320928,0.1320928,190,104,217
2635.816,0.594375,-9.868899,0.9864111,-1.273715,0.221575,0.07456851,0.0777643,134,166,213
2635.82,0.5982813,-9.811438,1.106121,-1.297657,0.2258361,0.03728426,0.04261058,132,156,154
2635.824,0.6021875,-9.797073,1.225831,-1.244985,0.2269013,-0.01597897,0.005326322,194,109,149
2635.828,0.6060938,-9.830592,1.201889,-1.096544,0.2130529,-0.05539375,-0.02663161,175,108,227
2635.832,0.61,-9.902418,1.077391,-1.086968,0.201335,-0.1097222,-0.05326322,128,120,235
2635.836,0.6139063,-9.935937,0.9720459,-1.120486,0.1842907,-0.1715076,-0.09267801,121,163,197
2635.84,0.6178125,-9.92636,0.9768343,-1.163582,0.1757686,-0.2205097,-0.1267665,199,176,197
2635.844,0.6217188,-9.892841,0.9864111,-1.216254,0.1672465,-0.2695119,-0.1640507,171,75,219
2635.848,0.625625,-9.878476,1.04866,-1.249773,0.1576591,-0.3153183,-0.1992044,171,134,252
2635.852,0.6295313,-9.739612,1.197101,-1.316811,0.1395496,-0.3802994,-0.2439456,148,181,164
2635.855,0.6334375,-9.730036,1.254562,-1.398214,0.1193096,-0.4218447,-0.278034,238,159,167
2635.859,0.6373438,-9.658209,1.211466,-1.455675,0.09693906,-0.4804343,-0.3110572,241,145,165
2635.863,0.64125,-9.658209,1.101333,-1.508347,0.07669904,-0.5241101,-0.3408846,120,96,251
2635.867,0.6451563,-9.619902,0.9385271,-1.517924,0.05645902,-0.5933523,-0.3920173,179,177,242
2635.871,0.6490625,-9.624691,0.8523358,-1.522712,0.04687164,-0.6380934,-0.4293016,129,136,167
2635.875,0.6529688,-9.586383,0.8236054,-1.561019,0.04261058,-0.6902914,-0.46339,192,104,193
2635.879,0.656875,-9.581595,0.6655881,-1.561019,0.04048005,-0.7275756,-0.5006743,220,112,245
2635.883,0.6607813,-9.59596,0.5841852,-1.575385,0.03621899,-0.7787083,-0.5368933,138,172,212
2635.887,0.6646875,-9.576807,0.3926491,-1.632846,0.03941478,-0.8351673,-0.5869607,143,200,156
2635.891,0.6685938,-9.600749,0.3639187,-1.656788,0.04367584,-0.8767126,-0.628506,209,146,190
2635.895,0.6725,-9.629479,0.272939,-1.699883,0.05219796,-0.9129316,-0.6679208,236,111,242
2635.898,0.6764063,-9.634267,0.2537854,-1.604115,0.06072007,-0.9608685,-0.7084008,161,138,234
2635.902,0.6803125,-9.586383,0.2202666,-1.656788,0.07030745,-1.010936,-0.7552725,131,204,192
2635.906,0.6842188,-9.605537,0.1963245,-1.675941,0.0777643,-1.051416,-0.793622,212,185,164
2635.91,0.688125,-9.624691,0.2154781,-1.651999,0.08415589,-1.078048,-0.8266452,232,77,184
2635.914,0.6920313,-9.610325,0.2633622,-1.752556,0.09267801,-1.125985,-0.8628642,107,87,247
2635.918,0.6959375,-9.653421,0.3256114,-1.877054,0.1054612,-1.166465,-0.8990832,112,133,261
2635.922,0.6998438,-9.701305,0.3974375,-1.963245,0.1118528,-1.194161,-0.9512811,138,149,162
2635.926,0.70375,-9.787496,0.3782839,-1.958457,0.1203749,-1.22825,-0.9885654,231,72,137
2635.93,0.7076563,-9.844957,0.3303998,-1.915361,0.1299623,-1.259143,-1.024784,251,62,204
2635.934,0.7115625,-9.859322,0.2825158,-1.972822,0.1384844,-1.287905,-1.064199,122,163,241
2635.938,0.7154688,-9.89763,0.2633622,-1.944092,0.1533981,-1.325189,-1.118528,128,174,188
2635.941,0.719375,-9.888053,0.3687071,-1.900996,0.1640507,-1.355016,-1.152616,231,110,164
2635.945,0.7232813,-9.873688,0.4118027,-1.891419,0.1768339,-1.373126,-1.178182,211,55,232
2635.949,0.7271875,-9.768343,0.6129156,-1.824382,0.181095,-1.397627,-1.204814,151,39,284
2635.953,0.7310938,-9.706094,0.8714894,-1.771709,0.1704423,-1.407214,-1.242098,141,158,170
2635.957,0.735,-9.730036,1.201889,-1.747767,0.1427454,-1.438107,-1.265534,243,124,165
2635.961,0.7389063,-9.662998,1.489193,-1.580173,0.1043959,-1.44876,-1.284709,172,97,257
2635.965,0.7428125,-9.562441,1.766921,-1.537077,0.05965481,-1.456216,-1.302818,170,69,256
2635.969,0.7467188,-9.538499,2.092532,-1.479617,0.003195793,-1.465804,-1.321993,164,122,268
2635.973,0.750625,-9.653421,2.351106,-1.37906,-0.08309063,-1.475391,-1.350755,189,147,160
2635.977,0.7545313,-9.639056,2.5187,-1.307234,-0.1608549,-1.488174,-1.375256,204,68,181
2635.98,0.7584375,-9.792285,2.614468,-1.240196,-0.2471413,-1.482848,-1.395496,190,110,206
2635.984,0.7623438,-9.864111,2.667141,-1.154005,-0.3334278,-1.500958,-1.415736,148,130,248
2635.988,0.76625,-9.955091,2.542642,-1.158794,-0.4495416,-1.502023,-1.444499,177,142,182
2635.992,0.7701563,-10.00297,2.403778,-1.067814,-0.5283712,-1.512675,-1.467934,258,39,169
2635.996,0.7740625,-10.05565,2.231396,-1.01993,-0.6029397,-1.512675,-1.492435,194,49,240
2636,0.7779688,-10.06044,2.106897,-1.010353,-0.6636597,-1.521198,-1.520132,181,46,222
2636.004,0.781875,-10.08438,1.810016,-1.053449,-0.7243798,-1.52972,-1.553156,179,133,202
2636.008,0.7857813,-10.09874,1.556231,-1.067814,-0.7552725,-1.532916,-1.576591,243,123,152
2636.012,0.7896875,-10.18015,1.374272,-1.216254,-0.7723167,-1.533981,-1.601092,204,71,225
2636.016,0.7935938,-10.14663,1.292869,-1.182736,-0.777643,-1.546764,-1.628789,207,65,262
2636.02,0.7975,-10.16099,1.177947,-1.216254,-0.7744472,-1.541438,-1.652225,208,101,228
2636.023,0.8014063,-10.14663,1.034295,-1.273715,-0.7510114,-1.554221,-1.685248,237,148,130
2636.027,0.8053125,-10.21366,1.015142,-1.403002,-0.7286409,-1.556351,-1.709749,245,70,157
2636.031,0.8092188,-10.24718,0.914585,-1.398214,-0.700944,-1.563808,-1.733185,232,35,248
2636.035,0.813125,-10.32859,0.8714894,-1.383849,-0.6679208,-1.569135,-1.756621,198,138,251
2636.039,0.8170313,-10.25676,0.8523358,-1.345541,-0.624245,-1.573396,-1.780057,161,114,148
2636.043,0.8209375,-10.22324,0.7517793,-1.403002,-0.5890912,-1.580852,-1.800297,245,10,165
2636.047,0.8248438,-10.23282,0.7996634,-1.398214,-0.556068,-1.584048,-1.820537,262,45,245
2636.051,0.82875,-10.22324,0.8954314,-1.369483,-0.5230448,-1.586179,-1.841842,157,53,246
2636.055,0.8326563,-10.22803,1.063026,-1.398214,-0.4804343,-1.59257,-1.867409,182,101,167
2636.059,0.8365625,-10.1562,1.154005,-1.345541,-0.4548679,-1.595766,-1.884453,239,114,155
2636.062,0.8404688,-10.18015,1.321599,-1.369483,-0.4335626,-1.59044,-1.901497,251,37,230
2636.066,0.844375,-10.08438,1.446098,-1.331176,-0.4197142,-1.598962,-1.911084,221,51,234
2636.07,0.8482813,-10.00776,1.623269,-1.412579,-0.4090615,-1.59257,-1.917476,222,107,176
2636.074,0.8521875,-9.998186,1.867477,-1.374272,-0.3994742,-1.596831,-1.921737,269,95,162
2636.078,0.8560938,-10.00776,2.015918,-1.340753,-0.3994742,-1.595766,-1.922802,265,-26,173
2636.082,0.86,-10.06044,2.327164,-1.326388,-0.4037352,-1.593636,-1.922802,189,9,238
2636.086,0.8639063,-10.14663,2.528277,-1.426944,-0.4101268,-1.59257,-1.920672,145,91,205
2636.09,0.8678125,-10.23761,2.777274,-1.484405,-0.42291,-1.59257,-1.917476,215,76,181
2636.094,0.8717188,-10.29986,2.873042,-1.302446,-0.4314321,-1.59044,-1.91215,272,45,173
2636.098,0.875625,-10.38605,2.935291,-1.216254,-0.4420847,-1.59044,-1.905758,221,34,238
2636.102,0.8795313,-10.56322,2.806004,-0.9528923,-0.4612595,-1.593636,-1.89404,180,85,254
2636.105,0.8834375,-10.64941,2.557007,-0.866701,-0.4846953,-1.582983,-1.878061,173,58,183
2636.109,0.8873438,-10.63504,2.116474,-0.6512229,-0.5070659,-1.574461,-1.854625,258,75,181
2636.113,0.89125,-10.53449,1.867477,-0.6560113,-0.5134575,-1.567004,-1.848234,267,14,190
2636.117,0.8951563,-10.4052,1.786074,-0.5841852,-0.5177185,-1.564873,-1.837581,170,30,209
2636.121,0.8990625,-10.34774,1.73819,-0.5506664,-0.5187838,-1.547829,-1.822667,212,82,162
2636.125,0.9029688,-10.27113,1.786074,-0.6224924,-0.5230448,-1.547829,-1.81308,291,94,112
2636.129,0.906875,-10.33816,1.805228,-0.5602432,-0.5294364,-1.532916,-1.804558,261,-12,176
2636.133,0.9107813,-10.31901,1.786074,-0.5841852,-0.5326322,-1.526524,-1.787514,211,72,245
2636.137,0.9146875,-10.29507,1.742979,-0.521936,-0.5411543,-1.518002,-1.768339,221,78,177
2636.141,0.9185938,-10.21845,1.695095,-0.4548983,-0.5443501,-1.500958,-1.734251,193,77,173
2636.145,0.9225,-10.1179,1.632846,-0.4070143,-0.5422196,-1.479652,-1.704423,268,-3,133
2636.148,0.9264063,-9.979033,1.455675,-0.3543418,-0.5347627,-1.463673,-1.677791,280,-7,185
2636.152,0.9303125,-9.89763,1.474828,-0.3974375,-0.5209143,-1.447694,-1.65329,217,88,223
2636.156,0.9342188,-9.83538,1.407791,-0.4022259,-0.5070659,-1.412541,-1.624528,210,125,166
2636.16,0.938125,-9.935937,1.221043,-0.3591302,-0.4783037,-1.395496,-1.580852,305,100,160
2636.164,0.9420313,-10.00776,1.106121,-0.3351882,-0.4463458,-1.365669,-1.538242,276,-17,216
2636.168,0.9459375,-10.02213,0.9672575,-0.3112462,-0.4058658,-1.350755,-1.496697,213,18,199
2636.172,0.9498438,-10.10353,0.8571242,-0.1675941,-0.3547331,-1.310275,-1.45089,206,66,147
2636.176,0.95375,-10.10353,0.6703765,-0.1388637,-0.2801645,-1.287905,-1.385909,263,95,148
2636.18,0.9576563,-10.06044,0.6081272,-0.1388637,-0.2173139,-1.245294,-1.324124,312,15,217
2636.184,0.9615625,-10.02692,0.521936,-0.1963245,-0.1597897,-1.231446,-1.261273,220,8,205
2636.188,0.9654688,-9.979033,0.4165911,-0.1436521,-0.09800433,-1.192031,-1.195227,230,80,214
2636.191,0.969375,-9.758766,0.5027823,-0.004788403,-0.002130529,-1.161138,-1.104679,315,78,135
2636.195,0.9732813,-9.56723,0.617704,0.1532289,0.06817692,-1.121723,-1.036502,266,25,157
2636.199,0.9771875,-9.514557,0.8044518,0.320823,0.1278317,-1.089766,-0.9619338,280,20,245
2636.203,0.9810938,-9.303868,0.9241618,0.3064578,0.1768339,-1.041829,-0.8788432,212,92,191
2636.207,0.985,-9.184158,1.005565,0.4165911,0.2162487,-1.000283,-0.8000136,233,93,155
2636.211,0.9889063,-9.016563,1.331176,0.5267244,0.2471413,-0.9257148,-0.6913566,304,19,114
2636.215,0.9928125,-8.796297,1.460463,0.593762,0.2556635,-0.8724516,-0.6167881,299,-9,204
2636.219,0.9967188,-8.599972,1.733402,0.641646,0.257794,-0.8042746,-0.5432849,213,25,194
2636.223,1.000625,-8.437167,2.001553,0.56982,0.237554,-0.7350325,-0.479369,234,62,135
2636.227,1.004531,-8.255207,2.240973,0.5123592,0.185356,-0.6391587,-0.3888215,319,93,143
2636.23,1.008438,-8.015787,2.389413,0.4836287,0.1342233,-0.5624596,-0.3249057,282,31,183
2636.234,1.012344,-7.876923,2.485181,0.3495534,0.07243798,-0.4804343,-0.2652508,210,21,229
2636.238,1.01625,-7.64708,2.523489,0.2442086,0.00958738,-0.4016047,-0.2045308,231,88,237
2636.242,1.020156,-7.460332,2.576161,0.1053449,-0.05113269,-0.309992,-0.1406149,270,75,168
2636.246,1.024063,-7.422025,2.63841,0.1005565,-0.1203749,-0.2045308,-0.05432849,293,-20,147
2636.25,1.027969,-7.417237,2.667141,0.009576807,-0.1704423,-0.1161138,0.0149137,314,38,191
2636.254,1.031875,-7.417237,2.643199,-0.1197101,-0.2141182,-0.03408846,0.08841695,213,69,203
2636.258,1.035781,-7.364564,2.571373,-0.2106897,-0.257794,0.05219796,0.169377,266,79,137
2636.262,1.039688,-7.134721,2.595315,-0.3926491,-0.3004046,0.1533981,0.2759035,302,-6,134
2636.266,1.043594,-6.981492,2.777274,-0.5075708,-0.3291667,0.2492719,0.3568636,260,16,254
2636.27,1.0475,-6.900089,2.930503,-0.641646,-0.3526025,0.3067962,0.4367584,197,-9,218
2636.273,1.051406,-6.727707,3.007117,-0.7757213,-0.3781689,0.3984089,0.5251754,239,81,154
2636.277,1.055313,-6.775591,3.098097,-0.9193734,-0.3973436,0.4761732,0.6306365,312,90,147
2636.281,1.059219,-6.861782,3.107674,-1.120486,-0.4079963,0.5507417,0.7126619,306,-17,195
2636.285,1.063125,-7.340622,2.925714,-0.8762778,-0.4090615,0.592287,0.7978831,196,43,205
2636.289,1.067031,-8.063671,2.590526,-0.593762,-0.3824299,0.6359629,0.8735168,248,56,105
2636.293,1.070938,-8.815451,2.389413,-0.7805097,-0.3281014,0.6668555,0.9438243,281,92,125
2636.297,1.074844,-9.773131,2.671929,-0.3926491,-0.1949434,0.6988135,1.056742,284,8,137
2636.301,1.07875,-10.55364,2.466028,1.163582,-0.1001349,0.7190535,1.163269,192,-14,237
2636.305,1.082656,-11.68849,0.9528923,3.045425,-0.0777643,0.684965,1.264469,204,84,208
2636.309,1.086563,-13.51766,-2.226608,5.559336,-0.09800433,0.644485,1.326254,193,63,162
2636.312,1.090469,-17.82723,-9.485827,9.035717,-0.1139833,0.4857606,1.301753,287,18,152
2636.316,1.094375,-21.76808,-15.87835,10.02692,-0.02343582,0.3376888,1.18777,263,14,206
2636.32,1.098281,-24.3203,-19.51753,5.185841,0.2386192,0.2141182,1.000283,202,110,221
2636.324,1.102188,-23.15193,-16.82645,0.2920926,0.6135923,0.2386192,0.8287757,243,78,143
2636.328,1.106094,-17.53034,-6.196194,-2.734178,1.101483,0.3568636,0.7946873,255,87,148
2636.332,1.11,-13.48893,0.8954314,-3.011906,1.2911,0.4516721,0.8617989,275,39,221
2636.336,1.113906,-10.63026,4.855441,-3.586514,1.235707,0.5581986,0.8958874,226,26,207
2636.34,1.117813,-9.241618,4.874595,-3.682282,1.041829,0.6753777,0.9374327,201,77,178
2636.344,1.121719,-8.303091,2.044648,-3.189077,0.8692558,0.773382,1.034372,276,57,176
2636.348,1.125625,-7.680599,-1.781286,-1.910573,0.8266452,0.9193232,1.159008,297,5,147
2636.352,1.129531,-7.398083,-1.01993,-0.56982,0.9139969,1.00774,1.222924,249,31,199
2636.355,1.133438,-7.972692,1.675941,-0.06224924,0.9715212,1.071656,1.278317,195,98,167
2636.359,1.137344,-9.150639,4.074931,0.1628057,0.9108011,1.098288,1.34969,183,110,118
2636.363,1.14125,-10.87925,4.716577,-0.03830723,0.7094661,1.122789,1.433846,282,-16,155
2636.367,1.145156,-11.71243,4.189853,-0.2346318,0.5134575,1.104679,1.41041,282,32,203
2636.371,1.149063,-12.10508,4.103662,-0.2920926,0.2854909,1.083374,1.348625,245,80,224
2636.375,1.152969,-11.74595,4.352659,-0.3256114,0.05006743,1.024784,1.290035,218,57,145
2636.379,1.156875,-10.51533,4.620809,-0.6512229,-0.2439456,0.9566075,1.239968,290,73,145
2636.383,1.160781,-9.662998,4.951209,-0.8331822,-0.4346279,0.8884305,1.204814,326,15,223
2636.387,1.164688,-8.920795,5.085284,-0.8810662,-0.5986786,0.8330368,1.182444,201,30,219
2636.391,1.168594,-8.360552,5.358223,-1.197101,-0.7467504,0.7850999,1.176052,211,60,152
2636.395,1.1725,-8.030152,5.60722,-1.134852,-0.8905611,0.7478156,1.179248,290,99,169
2636.398,1.176406,-7.800309,5.621585,-1.11091,-1.052481,0.7041398,1.186705,325,28,223
2636.402,1.180313,-8.054094,5.176264,-1.264138,-1.120658,0.6753777,1.182444,178,48,208
2636.406,1.184219,-8.652645,4.156334,-1.25935,-1.137702,0.6625945,1.170726,216,114,191
2636.41,1.188125,-9.394847,2.705448,-1.417367,-1.097222,0.6508766,1.144094,272,67,102
2636.414,1.192031,-10.42914,0.9002198,-1.484405,-0.9555422,0.6391587,1.081243,258,-1,139
2636.418,1.195938,-11.00854,-0.009576807,-1.642422,-0.7829694,0.6157228,1.018393,280,1,243
2636.422,1.199844,-11.42034,-0.3591302,-1.719037,-0.5837649,0.6008091,0.958738,237,77,231
2636.426,1.20375,-11.55442,-0.4309563,-1.757344,-0.3771036,0.5656554,0.9033442,198,115,173
2636.43,1.207656,-11.49217,-0.1532289,-1.790863,-0.1725728,0.5422196,0.8532768,260,0,122
2636.434,1.211563,-11.32457,0.2873042,-1.719037,0.0777643,0.4900216,0.8064052,276,27,251
2636.438,1.215469,-11.0229,0.593762,-1.867477,0.2450108,0.4740427,0.7989483,213,41,199
2636.441,1.219375,-10.64462,0.8331822,-1.881843,0.3962784,0.4356932,0.8000136,197,80,144
2636.445,1.223281,-10.44351,1.091756,-1.493982,0.5241101,0.4346279,0.8074704,246,130,115
2636.449,1.227188,-10.29986,1.513135,-1.063026,0.6881608,0.3973436,0.8202536,279,3,246
2636.453,1.231094,-10.29986,1.810016,-1.029507,0.8032094,0.3952131,0.8351673,227,5,224
2636.457,1.235,-10.17536,2.432509,-1.010353,0.8958874,0.3834952,0.8404936,219,153,205
2636.461,1.238906,-10.10353,3.332729,-0.842759,0.942759,0.3920173,0.8404936,269,98,152
2636.465,1.242813,-10.18015,4.481946,-0.9385271,0.9459548,0.3813647,0.8372978,284,2,145
2636.469,1.246719,-10.29028,4.836287,-0.5841852,0.8852347,0.3792341,0.8394284,268,52,161
2636.473,1.250625,-10.21845,4.898537,-0.5650316,0.7872304,0.3632552,0.8330368,229,122,250
2636.477,1.254531,-10.14184,4.893748,-0.5363012,0.6625945,0.3685815,0.8191884,210,95,143
2636.48,1.258438,-10.09395,4.76925,-0.320823,0.5368933,0.3440804,0.7957525,256,30,130
2636.484,1.262344,-9.940725,4.544195,-0.2059013,0.3749731,0.3334278,0.7605988,308,12,213
2636.488,1.26625,-9.907206,4.367024,-0.1484405,0.2641856,0.3387541,0.741424,220,136,206
2636.492,1.270156,-9.868899,4.13718,-0.1771709,0.1683118,0.3217099,0.7254451,199,125,151
2636.496,1.274063,-9.859322,3.983952,-0.1244985,0.08522115,0.3323625,0.7158577,296,78,151
2636.5,1.277969,-9.792285,3.86903,0.03830723,-0.0149137,0.3195793,0.7094661,278,44,217
2636.504,1.281875,-9.80665,3.77805,0.03830723,-0.08841695,0.3387541,0.7084008,201,-11,197
2636.508,1.285781,-9.921572,3.620033,0.004788403,-0.1512675,0.3163835,0.6977482,194,82,192
2636.512,1.289688,-10.02213,3.375824,-0.1149217,-0.2024002,0.3227751,0.6828345,251,106,147
2636.516,1.293594,-10.14663,3.275268,-0.3112462,-0.2460761,0.3067962,0.648746,317,45,184
2636.52,1.2975,-10.20888,3.260903,-0.4692635,-0.2684466,0.294013,0.6253102,192,-4,239
2636.523,1.301406,-10.27113,3.1795,-0.6320692,-0.2769688,0.2854909,0.6029397,199,138,211
2636.527,1.305313,-10.18493,3.055001,-0.6655881,-0.2790993,0.273773,0.5837649,188,151,160
2636.531,1.309219,-10.1993,2.873042,-0.7326257,-0.2705772,0.2663161,0.572047,283,12,157
2636.535,1.313125,-10.12747,2.643199,-0.8331822,-0.2482066,0.2524677,0.5539375,252,5,229
2636.539,1.317031,-10.10832,2.322376,-0.9193734,-0.2194445,0.2428803,0.5347627,161,91,231
2636.543,1.320938,-10.16099,2.173935,-0.8954314,-0.1747034,0.2247708,0.5038701,192,123,138
2636.547,1.324844,-10.22324,2.059013,-0.9672575,-0.1203749,0.2087918,0.4783037,262,-3,163
2636.551,1.32875,-10.20888,1.939303,-0.9624691,-0.0330232,0.1800297,0.4474111,276,19,226
2636.555,1.332656,-10.24718,1.843535,-0.9385271,0.04048005,0.1768339,0.4335626,194,17,237
2636.559,1.336563,-10.18015,1.70946,-0.9528923,0.1118528,0.1544633,0.4303668,204,100,169
2636.562,1.340469,-10.08917,1.70946,-0.9289502,0.1768339,0.1533981,0.4239752,277,128,190
2636.566,1.344375,-10.07001,1.690306,-0.890643,0.2556635,0.1363538,0.4154531,281,10,227
2636.57,1.348281,-10.10353,1.594538,-0.7996634,0.3025351,0.1320928,0.4037352,169,13,219
2636.574,1.352188,-10.05565,1.628057,-0.7182605,0.3472762,0.1246359,0.390952,149,116,244
2636.578,1.356094,-10.06522,1.704672,-0.6655881,0.3813647,0.1161138,0.3749731,287,80,166
2636.582,1.36,-10.17057,1.886631,-0.6129156,0.4048005,0.1075917,0.366451,279,47,157
2636.586,1.363906,-10.06522,2.087744,-0.5506664,0.4101268,0.08948221,0.3621899,268,38,209
2636.59,1.367813,-10.07001,2.226608,-0.4836287,0.3984089,0.09906959,0.3611246,212,66,224
2636.594,1.371719,-9.964667,2.336741,-0.3687071,0.370712,0.08841695,0.3600594,213,120,154
2636.598,1.375625,-10.01255,2.470816,-0.2873042,0.3291667,0.1022654,0.3675162,272,23,128
2636.602,1.379531,-9.979033,2.590526,-0.1101333,0.257794,0.08841695,0.3728426,250,-3,233
2636.605,1.383438,-10.01734,2.734178,-0.03351882,0.1874865,0.09693906,0.3739078,208,65,236
2636.609,1.387344,-10.01734,2.839523,-0.09097966,0.1203749,0.08522115,0.3653857,188,105,167
2636.613,1.39125,-10.05565,2.892196,0.02394202,0.05432849,0.08415589,0.3611246,276,97,144
2636.617,1.395156,-10.06044,2.887407,0.05746084,-0.006391587,0.07563377,0.3557983,266,-30,198
2636.621,1.399063,-10.04607,2.853888,0.1628057,-0.08415589,0.06391587,0.3536678,198,27,227
2636.625,1.402969,-9.964667,2.647987,0.1771709,-0.1395496,0.07882957,0.3536678,163,117,155
2636.629,1.406875,-9.969456,2.494758,0.2106897,-0.1821602,0.05858954,0.3536678,247,128,186
2636.633,1.410781,-9.935937,2.217031,0.08619126,-0.2162487,0.06924219,0.3557983,239,39,125
2636.637,1.414688,-9.888053,1.810016,0.1197101,-0.2173139,0.04900216,0.3462109,286,10,219
2636.641,1.418594,-9.935937,1.556231,0.03830723,-0.2045308,0.05539375,0.3355583,151,101,208
2636.645,1.4225,-9.950302,1.312023,0.05267244,-0.1704423,0.04048005,0.3291667,181,93,176
2636.648,1.426406,-9.859322,1.11091,0.09576807,-0.1267665,0.04580637,0.3281014,232,37,166
2636.652,1.430313,-9.763554,0.9481039,0.1580173,-0.06072007,0.04261058,0.3249057,264,61,225
2636.656,1.434219,-9.801862,0.9241618,0.2537854,-0.005326322,0.03408846,0.3227751,190,101,241
2636.66,1.438125,-9.725247,0.9768343,0.3016694,0.04900216,0.03728426,0.3249057,204,87,127
2636.664,1.442031,-9.753978,1.024718,0.4022259,0.1012001,0.03089267,0.3281014,234,121,120
2636.668,1.445938,-9.706094,1.101333,0.5171476,0.144876,0.03195793,0.3259709,283,3,211
2636.672,1.449844,-9.734824,1.302446,0.5889736,0.1928129,0.02556635,0.330232,233,27,226
2636.676,1.45375,-9.768343,1.436521,0.6847417,0.2151834,0.03834952,0.3366236,218,122,178
2636.68,1.457656,-9.730036,1.623269,0.7709329,0.2247708,0.03089267,0.3398194,290,109,120
2636.684,1.461563,-9.744401,1.790863,0.866701,0.2130529,0.04367584,0.3440804,306,43,147
2636.688,1.465469,-9.758766,1.915361,0.6847417,0.185356,0.04154531,0.3557983,195,37,244
2636.691,1.469375,-9.701305,1.982399,0.6943185,0.1523328,0.05432849,0.3632552,172,108,227
2636.695,1.473281,-9.797073,2.025495,0.6224924,0.1203749,0.05858954,0.370712,184,140,97
2636.699,1.477188,-9.734824,2.030283,0.6129156,0.07669904,0.07350325,0.3792341,240,43,179
2636.703,1.481094,-9.768343,1.905785,0.56982,0.008522115,0.08522115,0.390952,251,24,222
2636.707,1.485,-9.787496,1.604115,0.5410896,-0.0330232,0.08735168,0.3984089,176,88,219
2636.711,1.488906,-9.840169,1.302446,0.5602432,-0.0660464,0.09693906,0.4048005,188,91,121
2636.715,1.492813,-9.801862,1.058237,0.5841852,-0.07989483,0.09800433,0.4079963,268,135,138
2636.719,1.496719,-9.801862,0.8858546,0.7134721,-0.0777643,0.1097222,0.4090615,264,27,253
2636.723,1.500625,-9.739612,0.8954314,0.7230489,-0.05432849,0.1107875,0.4143879,179,28,199
2636.727,1.504531,-9.677363,0.9672575,0.7852981,-0.03941478,0.1225054,0.42291,156,90,161
2636.73,1.508438,-9.624691,1.077391,0.8331822,-0.0181095,0.1267665,0.4346279,269,104,165
2636.734,1.512344,-9.615114,1.35033,0.9241618,0,0.1438107,0.4452805,219,24,200
2636.738,1.51625,-9.543288,1.766921,0.9864111,0.01597897,0.1502023,0.4559332,180,31,234
2636.742,1.520156,-9.562441,1.953669,1.024718,0.02024002,0.1555286,0.4644553,198,84,193
2636.746,1.524063,-9.557653,2.116474,1.072602,0.01704423,0.1683118,0.4729774,223,144,203
2636.75,1.527969,-9.605537,2.30801,1.067814,0.01171791,0.1715076,0.4772385,258,69,147
2636.754,1.531875,-9.619902,2.408567,1.082179,0.005326322,0.1832255,0.4900216,265,30,219
2636.758,1.535781,-9.591172,2.30801,1.173159,0.001065264,0.1981392,0.5070659,197,128,213
2636.762,1.539688,-9.538499,2.164358,1.225831,-0.004261058,0.2024002,0.5145227,159,122,151
2636.766,1.543594,-9.519346,2.130839,1.321599,-0.01065264,0.2162487,0.5166533,222,-1,169
2636.77,1.5475,-9.562441,2.073379,1.441309,-0.0298274,0.2194445,0.5166533,248,32,225
2636.773,1.551406,-9.615114,1.939303,1.35033,-0.05965481,0.2332929,0.5113269,189,33,200
2636.777,1.555313,-9.619902,2.006341,1.345541,-0.0660464,0.2247708,0.5123922,199,97,134
2636.781,1.559219,-9.471462,2.020706,1.28808,-0.0809601,0.2535329,0.5241101,300,135,178
2636.785,1.563125,-9.375694,1.996764,1.240196,-0.09800433,0.2482066,0.5400891,283,45,204
2636.789,1.567031,-9.323021,1.790863,1.16837,-0.1257012,0.2812298,0.5709817,193,47,200
2636.793,1.570938,-9.251195,1.604115,1.211466,-0.144876,0.2908172,0.5901565,205,90,143
2636.797,1.574844,-9.279926,1.465251,1.16837,-0.1565939,0.3067962,0.6040049,281,127,183
2636.801,1.57875,-9.370905,1.407791,1.268927,-0.1640507,0.3206446,0.6135923,279,24,161
2636.805,1.582656,-9.524134,1.335965,1.374272,-0.1565939,0.330232,0.6199839,209,23,240
2636.809,1.586563,-9.572018,1.383849,1.489193,-0.1427454,0.3547331,0.6380934,208,98,232
2636.812,1.590469,-9.533711,1.422156,1.508347,-0.1342233,0.3547331,0.6530071,142,114,159
2636.816,1.594375,-9.562441,1.254562,1.632846,-0.1320928,0.3813647,0.6689861,245,21,160
2636.82,1.598281,-9.409213,1.034295,1.824382,-0.1150486,0.3760383,0.6775082,289,78,215
2636.824,1.602188,-9.452308,1.067814,1.996764,-0.08628642,0.40267,0.6775082,169,15,210
2636.828,1.606094,-9.303868,1.398214,2.035071,-0.06498113,0.3984089,0.6711166,189,126,122
2636.832,1.61,-9.313444,2.015918,1.877054,-0.06072007,0.4090615,0.6593987,250,139,163
2636.836,1.613906,-9.346963,2.470816,1.786074,-0.05645902,0.4090615,0.6615292,292,16,207
2636.84,1.617813,-9.299079,2.647987,1.685518,-0.03941478,0.4133226,0.6860303,194,31,227
2636.844,1.621719,-9.169792,2.681506,1.651999,-0.01597897,0.4218447,0.7094661,184,114,162
2636.848,1.625625,-9.241618,2.82037,1.393425,0.01917476,0.4261058,0.7318367,233,150,145
2636.852,1.629531,-9.490615,3.05979,1.101333,0.04900216,0.4356932,0.7478156,274,42,164
2636.855,1.633438,-9.667786,3.294421,0.5506664,0.08415589,0.4495416,0.7563377,244,16,248
2636.859,1.637344,-9.739612,4.022259,-0.5027823,0.1235707,0.4783037,0.7648599,197,82,219
2636.863,1.64125,-9.825804,4.194641,-1.082179,0.1523328,0.5091964,0.7808388,207,148,155
2636.867,1.645156,-9.902418,3.758897,-1.747767,0.1683118,0.5283712,0.7946873,260,55,147
2636.871,1.649063,-10.05086,2.944868,-1.924938,0.1864213,0.5528722,0.7989483,270,43,239
2636.875,1.652969,-10.23761,2.006341,-1.8579,0.2492719,0.5784386,0.7840346,192,63,210
2636.879,1.656875,-10.47224,1.556231,-1.675941,0.3334278,0.5944176,0.7723167,150,89,135
2636.883,1.660781,-10.66377,1.465251,-1.537077,0.4356932,0.588026,0.7595335,203,107,194
2636.887,1.664688,-10.79306,1.80044,-1.541866,0.5400891,0.5965481,0.7510114,263,63,225
2636.891,1.668594,-10.87925,2.504335,-1.733402,0.6253102,0.5826996,0.7403588,192,35,223
2636.895,1.6725,-10.63983,3.552995,-1.733402,0.6348976,0.5976133,0.7467504,154,136,167
2636.898,1.676406,-10.28549,4.050989,-1.412579,0.6221144,0.5954828,0.7691209,273,116,158
2636.902,1.680313,-9.80665,4.07972,-1.091756,0.5976133,0.6146576,0.7989483,223,38,174
2636.906,1.684219,-9.56723,3.835511,-0.9720459,0.5624596,0.6253102,0.813862,206,76,239
2636.91,1.688125,-9.653421,3.725378,-0.7374141,0.499609,0.6562029,0.8085357,185,96,225
2636.914,1.692031,-9.911995,3.711013,-0.5602432,0.4516721,0.6753777,0.7978831,203,117,191
2636.918,1.695938,-10.20409,3.653552,-0.1867477,0.4111921,0.6956177,0.7925567,244,52,134
2636.922,1.699844,-10.35732,3.687071,0.1628057,0.390952,0.7094661,0.7904262,252,43,229
2636.926,1.70375,-10.43872,3.543418,0.5746084,0.3643204,0.7275756,0.7946873,159,73,233
2636.93,1.707656,-10.5297,3.284845,0.7278373,0.350472,0.7499462,0.8106662,185,79,165
2636.934,1.711563,-10.51055,3.074155,0.8523358,0.3536678,0.7659251,0.8341021,303,113,203
2636.938,1.715469,-10.57758,2.882619,0.9433155,0.3611246,0.7893609,0.8586031,248,-3,221
2636.941,1.719375,-10.62068,2.585738,0.914585,0.3781689,0.8117315,0.8713863,182,44,236
2636.945,1.723281,-10.57758,2.27928,1.000776,0.4101268,0.8532768,0.8863,160,146,165
2636.949,1.727188,-10.54885,2.178724,0.9433155,0.4506069,0.8873653,0.9012137,222,112,183
2636.953,1.731094,-10.48181,2.169147,0.890643,0.4889564,0.9182579,0.922519,271,43,228
2636.957,1.735,-10.5297,2.221819,0.6799533,0.5251754,0.9555422,0.9480853,172,50,233
2636.961,1.738906,-10.70687,2.63841,0.9289502,0.5645902,0.9970875,0.9970875,209,133,221
2636.965,1.742813,-11.09952,1.82917,1.015142,0.5134575,1.00774,1.037568,169,111,166
2636.969,1.746719,-11.2719,1.221043,0.2633622,0.5145227,1.038633,1.055677,221,20,191
2636.973,1.750625,-11.75553,1.417367,-0.2154781,0.5528722,1.072721,1.056742,243,19,230
2636.977,1.754531,-12.14339,2.341529,-0.05746084,0.572047,1.124919,1.087635,199,126,261
2636.98,1.758438,-11.89439,2.604891,-0.1867477,0.5400891,1.177117,1.122789,156,114,144
2636.984,1.762344,-11.87524,2.466028,-0.3399766,0.4846953,1.219728,1.14942,225,55,148
2636.988,1.76625,-12.15776,2.106897,-0.4118027,0.4484763,1.275122,1.180313,248,82,263
2636.992,1.770156,-12.5935,1.833958,-0.3878607,0.4356932,1.321993,1.215467,198,55,252
2636.996,1.774063,-13.06755,1.465251,-0.2873042,0.4282363,1.376322,1.24849,198,95,153
2637,1.777969,-13.06276,1.283292,-0.2202666,0.4165184,1.414671,1.274056,244,120,165
2637.004,1.781875,-13.09628,0.9385271,-0.1819593,0.4133226,1.453021,1.298557,251,58,253
2637.008,1.785781,-13.09149,0.7565677,-0.09097966,0.4356932,1.478587,1.323058,206,61,216
2637.012,1.789688,-13.06276,0.593762,0.03351882,0.4697816,1.559547,1.370995,223,161,229
2637.016,1.793594,-12.95263,0.7038953,0.2681506,0.4964132,1.608549,1.416802,264,130,160
2637.02,1.7975,-12.90954,0.7517793,0.4309563,0.5145227,1.665008,1.457282,246,61,155
2637.023,1.801406,-13.11065,0.6320692,0.4836287,0.5219796,1.721467,1.494566,271,76,237
2637.027,1.805313,-13.4602,0.5506664,0.7038953,0.5368933,1.803493,1.543568,216,105,215
2637.031,1.809219,-13.872,0.7086837,1.053449,0.5550028,1.867409,1.574461,187,156,177
2637.035,1.813125,-14.30296,0.8858546,1.25935,0.5667207,1.930259,1.61068,259,79,149
2637.039,1.817031,-14.91588,0.7805097,1.489193,0.5656554,1.99524,1.647964,246,142,247
2637.043,1.820938,-15.74427,0.4644751,1.541866,0.556068,2.050634,1.683118,140,67,270
2637.047,1.824844,-16.91264,-0.2106897,1.747767,0.535828,2.112419,1.731055,186,151,162
2637.051,1.82875,-17.71709,-1.063026,1.781286,0.5368933,2.129464,1.767274,225,182,178
2637.055,1.832656,-18.24861,-1.944092,1.651999,0.5773733,2.151834,1.801362,241,80,237
2637.059,1.836563,-18.6652,-2.643199,1.742979,0.6498113,2.158226,1.838646,222,59,249
2637.062,1.840469,-18.84716,-3.256114,1.647211,0.7850999,2.15716,1.897236,191,178,198
2637.066,1.844375,-18.85673,-3.586514,1.388637,0.9129316,2.147573,1.948369,277,165,193
2637.07,1.848281,-18.96687,-3.711013,1.254562,1.043959,2.139051,1.997371,261,62,202
2637.074,1.852188,-19.0339,-3.763685,0.8619126,1.192031,2.120941,2.045308,184,86,259
2637.078,1.856094,-19.50796,-3.634398,-0.3064578,1.353951,2.092179,2.07407,191,141,231
2637.082,1.86,-19.93412,-3.347094,-0.4548983,1.586179,2.025068,2.083657,195,146,204
2637.086,1.863906,-20.40817,-3.481169,0.1675941,1.748099,2.005893,2.080461,242,73,180
2637.09,1.867813,-20.80082,-4.271256,0.6224924,1.917476,1.964348,2.071939,254,117,238
2637.094,1.871719,-20.80082,-5.463568,1.13964,2.113485,1.950499,2.068744,207,183,234
2637.098,1.875625,-20.231,-7.350199,2.231396,2.453304,1.903628,2.029329,195,134,158
2637.102,1.879531,-19.34515,-7.872135,3.246537,2.755839,1.907889,1.971804,281,172,186
2637.105,1.883438,-18.12411,-6.995857,4.055778,3.057309,1.913215,1.899366,248,76,242
2637.109,1.887344,-16.8456,-4.812345,3.931279,3.286341,1.928129,1.824798,179,127,250
2637.113,1.89125,-15.13614,-0.8714894,2.662352,3.440804,1.985653,1.75236,231,176,163
2637.117,1.895156,-14.00608,2.504335,2.178724,3.485545,2.044242,1.71401,275,153,184
2637.121,1.899063,-13.09628,6.105214,1.522712,3.490872,2.13692,1.682053,206,93,259
2637.125,1.902969,-12.45464,9.299079,0.7661445,3.462109,2.25623,1.660747,219,104,226
2637.129,1.906875,-12.4307,11.67892,0.2202666,3.370497,2.353169,1.63305,196,151,259
2637.133,1.910781,-12.92869,14.121,-2.06859,3.087136,2.491654,1.579787,303,186,181
2637.137,1.914688,-13.53682,15.29895,-2.662352,2.688727,2.533199,1.546764,293,61,174
2637.141,1.918594,-14.17846,16.08425,-3.213019,2.246643,2.544917,1.518002,267,108,258
2637.145,1.9225,-14.63815,16.36197,-3.380613,1.71401,2.523611,1.479652,199,176,264
2637.148,1.926406,-14.76744,15.95975,-3.605668,0.9054748,2.462891,1.411475,228,146,181
2637.152,1.930313,-14.57111,15.07389,-4.702212,0.2460761,2.386192,1.360343,308,135,178
2637.156,1.934219,-13.80018,13.72356,-4.836287,-0.3387541,2.365952,1.300688,289,112,272
2637.16,1.938125,-13.28303,11.94707,-3.945644,-0.9044095,2.289253,1.234641,231,150,302
2637.164,1.942031,-12.70842,9.576807,-3.514688,-1.380583,2.167813,1.144094,211,186,194
2637.168,1.945938,-12.3062,8.116344,-3.141193,-1.618137,2.081527,1.080178,256,163,176
2637.172,1.949844,-11.97101,6.919243,-3.031059,-1.766208,1.988849,1.021589,245,142,238
2637.176,1.95375,-11.4395,5.899313,-3.227384,-1.788579,1.884453,0.9566075,199,91,220
2637.18,1.957656,-10.96544,5.109226,-3.476381,-1.765143,1.776861,0.8905611,193,185,253
2637.184,1.961563,-10.39562,4.491522,-3.303998,-1.634116,1.65116,0.8085357,266,156,169
2637.188,1.965469,-10.06044,3.983952,-3.217807,-1.472195,1.542503,0.7488809,236,115,169
2637.191,1.969375,-9.653421,3.691859,-3.347094,-1.296427,1.419997,0.6764429,300,85,254
2637.195,1.973281,-8.973468,3.758897,-2.94008,-1.10681,1.311341,0.608266,197,159,243
2637.199,1.977188,-8.010999,4.170699,-2.504335,-0.8394284,1.151551,0.5177185,220,192,200
2637.203,1.981094,-7.345411,4.525041,-2.834735,-0.6796387,1.030111,0.4601942,275,170,182
2637.207,1.985,-6.679823,4.735731,-3.117251,-0.5795039,0.9235843,0.4239752,262,136,207
2637.211,1.988906,-6.143521,4.922479,-3.217807,-0.4687164,0.8223841,0.4079963,231,92,217
2637.215,1.992813,-5.568913,5.080496,-2.566584,-0.350472,0.721184,0.4058658,220,201,190
2637.219,1.996719,-5.358223,4.750096,-2.140416,-0.2343582,0.5912218,0.406931,234,209,168
2637.223,2.000625,-5.238513,4.118027,-1.810016,-0.2151834,0.4580637,0.40267,296,147,285
2637.227,2.004531,-5.252878,3.284845,-1.68073,-0.2311624,0.3376888,0.3888215,222,105,270
2637.23,2.008438,-5.568913,2.600103,-1.671153,-0.2567287,0.2428803,0.3419499,173,209,167
2637.234,2.012344,-5.750872,1.790863,-1.599327,-0.2705772,0.09480853,0.2247708,253,197,198
2637.238,2.01625,-5.875371,1.441309,-1.580173,-0.2652508,-0.01065264,0.1022654,267,126,158
2637.242,2.020156,-5.827487,1.312023,-1.474828,-0.2503371,-0.1225054,-0.02556635,256,120,257
2637.246,2.024063,-5.57849,1.211466,-1.436521,-0.237554,-0.2300971,-0.1629855,195,146,244
2637.25,2.027969,-5.066131,1.216254,-1.517924,-0.2332929,-0.370712,-0.3483415,196,190,169
2637.254,2.031875,-4.625598,1.240196,-1.604115,-0.2322276,-0.4846953,-0.4836301,274,103,193
2637.258,2.035781,-4.218583,1.192312,-1.685518,-0.2300971,-0.5912218,-0.6135923,282,92,274
2637.262,2.039688,-3.936068,1.096544,-1.781286,-0.2205097,-0.6924219,-0.7392935,213,234,247
2637.266,2.043594,-3.634398,1.201889,-1.819593,-0.2066613,-0.8000136,-0.8628642,177,195,168
2637.27,2.0475,-3.529053,1.134852,-1.924938,-0.1832255,-0.938498,-1.019458,264,176,187
2637.273,2.051406,-3.500323,1.13964,-1.963245,-0.169377,-1.049285,-1.12705,258,123,258
2637.277,2.055313,-3.62961,0.9672575,-2.06859,-0.1555286,-1.151551,-1.226119,203,144,250
2637.281,2.059219,-3.529053,0.8475474,-1.517924,-0.1523328,-1.253816,-1.318797,212,198,184
2637.285,2.063125,-3.442862,1.249773,-2.537854,-0.1022654,-1.380583,-1.444499,256,189,189
2637.289,2.067031,-3.385401,1.513135,-2.336741,-0.1203749,-1.475391,-1.524393,277,134,160
2637.293,2.070938,-3.351882,1.838747,-2.27928,-0.108657,-1.577657,-1.591505,199,124,240
2637.297,2.074844,-3.313575,1.900996,-2.298434,-0.1033307,-1.67353,-1.649029,191,171,234
2637.301,2.07875,-3.414132,1.944092,-2.461239,-0.1022654,-1.791775,-1.738512,207,167,186
2637.305,2.082656,-3.519476,1.972822,-2.533065,-0.09693906,-1.880192,-1.809884,246,83,166
2637.309,2.086563,-3.605668,2.087744,-2.604891,-0.08948221,-1.964348,-1.882322,307,100,226
2637.312,2.090469,-3.62961,2.173935,-2.604891,-0.07563377,-2.048504,-1.950499,198,161,254
2637.316,2.094375,-3.691859,2.269703,-2.619257,-0.05752428,-2.125203,-2.005893,187,195,163
2637.32,2.098281,-3.792415,2.351106,-2.643199,-0.03089267,-2.231729,-2.090049,268,180,148
2637.324,2.102188,-3.931279,2.485181,-2.643199,-0.01384844,-2.31482,-2.159291,250,135,237
2637.328,2.106094,-4.089296,2.552219,-2.715025,-0.007456851,-2.39791,-2.230664,186,99,252
2637.332,2.11,-4.683058,2.87783,-2.724601,-0.03941478,-2.626942,-2.39791,256,103,277
2637.336,2.113906,-4.683058,2.87783,-2.724601,-0.03941478,-2.626942,-2.39791,179,103,277
2637.34,2.117813,-4.754884,2.906561,-2.700659,-0.05006743,-2.647182,-2.411759,294,101,231
2637.344,2.121719,-4.884171,3.050213,-2.647987,-0.08202536,-2.723881,-2.453304,226,100,234
2637.348,2.125625,-5.013458,3.256114,-2.628833,-0.1203749,-2.79845,-2.494849,225,149,231
2637.352,2.129531,-5.15711,3.438074,-2.576161,-0.1821602,-2.894323,-2.555569,239,187,177
2637.355,2.133438,-5.291186,3.543418,-2.552219,-0.2332929,-2.957174,-2.606702,252,103,168
2637.359,2.137344,-5.473145,3.610456,-2.576161,-0.2844256,-3.029612,-2.6589,249,82,178
2637.363,2.14125,-5.602432,3.682282,-2.643199,-0.3376888,-3.095658,-2.712163,173,157,230
2637.367,2.145156,-5.779603,3.653552,-2.681506,-0.3941478,-3.16277,-2.761165,190,150,177
2637.371,2.149063,-6.0286,3.782839,-2.825158,-0.459129,-3.24373,-2.830408,295,80,170
2637.375,2.152969,-6.311116,3.983952,-2.892196,-0.495348,-3.306581,-2.892193,268,79,254
2637.379,2.156875,-6.545747,4.223372,-3.011906,-0.5347627,-3.366236,-2.946521,207,51,248
2637.383,2.160781,-6.86657,4.400543,-3.122039,-0.5784386,-3.42376,-2.98061,215,127,154
2637.387,2.164688,-7.192182,4.616021,-3.260903,-0.6274408,-3.493002,-3.012568,274,138,160
2637.391,2.168594,-7.5561,4.88896,-3.318364,-0.6551376,-3.54307,-3.044526,270,56,233
2637.395,2.1725,-7.852981,5.133168,-3.485958,-0.6775082,-3.591006,-3.076484,217,59,268
2637.398,2.176406,-8.178593,5.295974,-3.687071,-0.7020093,-3.633617,-3.097789,216,142,153
2637.402,2.180313,-8.365341,5.363012,-3.845088,-0.721184,-3.671967,-3.116964,257,133,136
2637.406,2.184219,-8.499416,5.363012,-3.998317,-0.7424893,-3.720969,-3.16277,277,46,153
2637.41,2.188125,-8.45632,5.238513,-4.132392,-0.7499462,-3.759318,-3.205381,259,98,236
2637.414,2.192031,-8.446743,5.09965,-4.252102,-0.7488809,-3.78595,-3.253318,220,157,217
2637.418,2.195938,-8.413225,4.898537,-4.338293,-0.7329019,-3.807255,-3.311907,205,127,117
2637.422,2.199844,-8.465897,4.429273,-4.496311,-0.6966829,-3.830691,-3.387541,282,87,103
2637.426,2.20375,-8.566454,4.280833,-4.577714,-0.6476808,-3.841344,-3.438674,291,28,229
2637.43,2.207656,-8.8777,4.13718,-4.606444,-0.5912218,-3.857323,-3.478088,186,126,215
2637.434,2.211563,-9.294291,4.055778,-4.659116,-0.5262406,-3.86904,-3.513242,227,104,136
2637.438,2.215469,-9.964667,4.094085,-4.673482,-0.4516721,-3.874367,-3.554787,241,128,160
2637.441,2.219375,-10.47703,4.367024,-4.501099,-0.4016047,-3.875432,-3.581419,278,75,202
2637.445,2.223281,-10.95108,4.711789,-4.343082,-0.3536678,-3.877563,-3.595267,167,31,211
2637.449,2.227188,-11.4778,5.051766,-4.285621,-0.3163835,-3.881824,-3.60592,218,125,161
2637.453,2.231094,-11.94707,5.348647,-4.309563,-0.2854909,-3.880758,-3.604855,285,120,102
2637.457,2.235,-12.50731,5.674258,-4.180276,-0.2503371,-3.871171,-3.591006,259,44,178
2637.461,2.238906,-12.8425,6.033388,-4.146757,-0.2205097,-3.871171,-3.573962,225,82,172
2637.465,2.242813,-13.07713,6.483498,-4.007894,-0.1896171,-3.84667,-3.538808,229,118,227
2637.469,2.246719,-13.06276,6.967127,-4.065354,-0.1725728,-3.845605,-3.490872,188,56,140
2637.473,2.250625,-12.67969,7.254431,-4.094085,-0.201335,-3.82643,-3.445065,294,52,116
2637.477,2.254531,-12.38281,7.431602,-4.098873,-0.2556635,-3.805125,-3.463175,290,60,177
2637.48,2.258438,-12.35887,7.94875,-4.031836,-0.3249057,-3.783819,-3.506851,227,119,180
2637.484,2.262344,-12.49773,8.513781,-3.98874,-0.4122573,-3.759318,-3.52496,242,128,171
2637.488,2.26625,-12.63181,9.030929,-3.969586,-0.5677859,-3.729491,-3.494067,273,135,137
2637.492,2.270156,-12.74194,9.150639,-4.046201,-0.7052051,-3.698598,-3.454653,268,61,162
2637.496,2.274063,-12.97657,9.059659,-3.955221,-0.8575379,-3.667705,-3.410977,208,61,138
2637.5,2.277969,-13.35486,8.801085,-3.945644,-1.009871,-3.633617,-3.366236,233,119,124
2637.504,2.281875,-13.67568,8.66701,-3.979163,-1.159008,-3.596333,-3.319364,291,137,162
2637.508,2.285781,-14.35563,8.192958,-3.931279,-1.353951,-3.521764,-3.252252,290,74,206
2637.512,2.289688,-14.86799,7.900865,-4.13718,-1.484979,-3.479154,-3.206446,248,64,175
2637.516,2.293594,-15.33247,7.838616,-4.616021,-1.561678,-3.437608,-3.155313,234,140,188
2637.52,2.2975,-15.68681,7.656657,-5.109226,-1.636246,-3.392867,-3.100985,230,114,133
2637.523,2.301406,-16.02679,7.479486,-5.45878,-1.666074,-3.343865,-3.04133,320,42,108
2637.527,2.305313,-16.33803,7.225701,-6.95755,-1.652225,-3.326821,-3.014698,341,23,175
2637.531,2.309219,-16.46732,6.612785,-8.111555,-1.587244,-3.34493,-2.997654,242,114,186
2637.535,2.313125,-16.21832,5.612009,-4.084508,-1.53185,-3.292732,-2.972088,286,144,110
2637.539,2.317031,-15.83525,4.165911,-4.419696,-1.414671,-3.249057,-2.908172,306,51,91
2637.543,2.320938,-14.77701,2.255338,-3.98874,-1.254882,-3.124421,-2.772883,308,23,158
2637.547,2.324844,-13.66131,0.593762,-3.562572,-1.052481,-3.012568,-2.623746,232,49,183
2637.551,2.32875,-12.43548,-0.5650316,-3.845088,-0.7605988,-2.909237,-2.450108,265,76,104
2637.555,2.332656,-11.30542,0.1340753,-3.308787,-0.4186489,-2.788862,-2.283927,316,103,111
2637.559,2.336563,-10.54406,1.958457,-2.72939,0.003195793,-2.613094,-2.058091,275,53,159
2637.562,2.340469,-10.21366,3.078943,-2.39899,0.2194445,-2.479936,-1.868474,252,19,201
2637.566,2.344375,-9.80665,4.012682,-2.149993,0.3643204,-2.31695,-1.650095,247,104,189
2637.57,2.348281,-9.279926,4.673482,-1.752556,0.4580637,-2.129464,-1.41041,312,62,86
2637.574,2.352188,-8.101978,5.228936,-1.096544,0.5060006,-1.852495,-1.075917,280,44,95
2637.578,2.356094,-6.914454,5.645528,-0.8331822,0.4932174,-1.596831,-0.8309063,316,40,178
2637.582,2.36,-5.827487,5.899313,-0.6272808,0.427171,-1.327319,-0.5954828,227,123,147
2637.586,2.363906,-4.845864,6.17704,-0.6751649,0.3174488,-1.047155,-0.3856257,240,96,107
2637.59,2.367813,-3.840299,6.593631,-0.5027823,0.1736381,-0.7542072,-0.2087918,358,24,118
2637.594,2.371719,-3.141193,7.182605,-0.5602432,-0.06711166,-0.3632552,0.002130529,311,19,182
2637.598,2.375625,-2.585738,7.139509,-0.7278373,-0.2844256,-0.0777643,0.1747034,233,44,155
2637.602,2.379531,-2.274492,6.876147,-1.015142,-0.5091964,0.205596,0.3643204,242,111,85
2637.605,2.383438,-2.116474,6.579266,-1.216254,-0.7179882,0.4878911,0.5709817,311,126,103
2637.609,2.387344,-2.5187,6.359,-1.70946,-0.958738,0.8234494,0.8394284,347,42,161
2637.613,2.39125,-3.074155,6.253655,-1.886631,-1.105744,1.067395,1.037568,260,64,166
2637.617,2.395156,-3.845088,5.995081,-2.379836,-1.217597,1.269795,1.231446,282,97,127
2637.621,2.399063,-4.683058,5.640739,-2.782062,-1.297492,1.466869,1.41041,300,93,73
2637.625,2.402969,-6.162675,5.070919,-3.667917,-1.356082,1.667139,1.617071,330,55,84
2637.629,2.406875,-7.220912,4.836287,-4.544195,-1.372061,1.797101,1.748099,313,72,166
2637.633,2.410781,-8.255207,4.486734,-4.012682,-1.352886,1.870604,1.859952,210,130,215
2637.637,2.414688,-9.552865,3.926491,-1.628057,-1.308145,1.907889,1.956891,267,99,86
2637.641,2.418594,-12.11466,2.777274,2.791639,-1.1899,1.822667,2.021872,331,50,103
2637.645,2.4225,-18.39226,-1.35033,13.22557,-1.113201,1.530785,2.070874,327,46,199
2637.648,2.426406,-25.88132,-8.51857,20.40339,-1.156877,1.174987,2.063417,247,124,170
2637.652,2.430313,-34.55791,-18.39705,18.69871,-1.284709,0.7765778,1.904693,203,104,127
2637.656,2.434219,-38.32159,-23.42966,5.918467,-1.254882,0.6008091,1.624528,282,102,54
2637.66,2.438125,-31.61783,-11.23838,-5.190629,-0.6743124,0.8586031,1.364604,283,-1,193
2637.664,2.442031,-21.70104,5.506664,-5.023035,-0.2876214,0.9693906,1.47113,194,16,199
2637.668,2.445938,-13.08192,16.85997,-5.228936,-0.1544633,1.096157,1.63092,287,117,98
2637.672,2.449844,-9.418789,18.69871,-7.900865,-0.3888215,1.313471,1.607484,293,117,109
2637.676,2.45375,-7.829039,8.896853,-9.500192,-0.700944,1.43065,1.654356,308,40,113
2637.68,2.457656,-6.890512,-1.733402,-7.31668,-0.8213189,1.600027,1.769404,250,24,192
2637.684,2.461563,-6.306327,-6.253655,-4.381389,-0.9129316,1.740642,1.770469,222,101,185
2637.688,2.465469,-5.722142,-0.3926491,-3.404555,-0.7478156,1.771535,1.672465,231,112,99
2637.691,2.469375,-7.943961,7.058106,-2.944868,-0.7147924,1.759817,1.597897,301,56,132
2637.695,2.473281,-11.26711,7.742848,-2.920926,-0.8351673,1.634116,1.782187,283,66,167
2637.699,2.477188,-12.33493,3.65834,-2.767697,-0.8234494,1.568069,1.925998,229,97,176
2637.703,2.481094,-12.41633,0.9816227,-2.341529,-0.6924219,1.526524,1.874865,222,123,118
2637.707,2.485,-12.3062,1.551443,-1.805228,-0.519849,1.48924,1.727859,310,57,104
2637.711,2.488906,-10.8601,4.113238,-1.723825,-0.3941478,1.41041,1.646899,292,22,208
2637.715,2.492813,-9.030929,4.702212,-2.470816,-0.3920173,1.358212,1.69377,201,50,200
2637.719,2.496719,-7.651869,4.118027,-2.815581,-0.4037352,1.285774,1.710815,213,110,95
2637.723,2.500625,-6.981492,3.529053,-2.791639,-0.3994742,1.234641,1.658617,294,109,111
2637.727,2.504531,-7.364564,3.581726,-2.346318,-0.3728426,1.180313,1.582983,251,55,195
2637.73,2.508438,-7.824251,4.429273,-1.541866,-0.3653857,1.116397,1.543568,227,55,135
2637.734,2.512344,-7.852981,5.497087,2.226608,-0.3643204,1.073787,1.567004,220,118,189
2637.738,2.51625,-8.418013,6.880936,0.9097966,-0.2865561,1.009871,1.601092,247,117,136
2637.742,2.520156,-9.083601,9.002198,1.810016,-0.1619202,1.002414,1.65329,279,45,95
2637.746,2.524063,-10.22324,11.55442,-1.551443,-0.1150486,0.9800433,1.769404,278,32,190
2637.75,2.527969,-10.93671,13.30218,-3.730166,-0.2045308,1.001349,1.847169,218,112,192
2637.754,2.531875,-12.02847,13.23994,-3.131616,-0.4250405,1.003479,1.868474,263,119,86
2637.758,2.535781,-13.28782,10.817,-2.303222,-0.6860303,0.9704559,1.846103,276,48,126
2637.762,2.539688,-14.30296,5.075708,-2.092532,-1.00561,0.8969527,1.745968,268,75,206
2637.766,2.543594,-13.99171,1.25935,-2.5187,-1.084439,0.8596684,1.577657,172,126,184
2637.77,2.5475,-13.07234,-0.4453215,-2.30801,-0.9619338,0.813862,1.346494,230,121,114
2637.773,2.551406,-12.09551,-0.248997,-2.183512,-0.6998787,0.7744472,1.133441,272,134,112
2637.777,2.555313,-11.32936,0.7326257,-2.724601,-0.406931,0.7233146,0.9917612,249,49,192
2637.781,2.559219,-10.32859,1.838747,-2.777274,-0.07350325,0.6657903,0.8980179,204,86,211
2637.785,2.563125,-9.572018,2.231396,-2.657564,0.1331581,0.6178534,0.8671253,220,138,89
2637.789,2.567031,-9.097966,2.106897,-2.1883,0.3131877,0.5795039,0.8543421,304,115,88
2637.793,2.570938,-8.863335,1.70946,-1.991976,0.4761732,0.5400891,0.8543421,278,81,99
2637.797,2.574844,-8.863335,1.441309,-1.862689,0.684965,0.5123922,0.8522115,206,31,188
2637.801,2.57875,-9.08839,1.517924,-1.900996,0.86606,0.4878911,0.8436894,218,123,178
2637.805,2.582656,-9.461885,1.924938,-2.035071,1.037568,0.4857606,0.8404936,218,137,118
2637.809,2.586563,-9.792285,2.580949,-1.867477,1.176052,0.4665858,0.8532768,257,20,146
2637.812,2.590469,-10.05565,3.505111,-1.80044,1.316667,0.4463458,0.8745821,278,35,192
2637.816,2.594375,-10.25676,4.046201,-1.862689,1.372061,0.4335626,0.8713863,188,136,192
2637.82,2.598281,-10.43393,4.525041,-1.910573,1.358212,0.4165184,0.8532768,217,124,117
2637.824,2.602188,-10.76912,5.0374,-1.810016,1.275122,0.406931,0.813862,279,132,94
2637.828,2.606094,-11.08515,5.621585,-1.699883,1.138768,0.3771036,0.7605988,286,54,169
2637.832,2.61,-11.37246,6.497863,-1.599327,0.882039,0.3557983,0.6902914,210,89,193
2637.836,2.613906,-11.29106,7.105991,-1.532289,0.6253102,0.3281014,0.6593987,226,144,97
2637.84,2.617813,-11.00375,7.431602,-1.412579,0.3312972,0.309992,0.6455502,274,84,135
2637.844,2.621719,-10.6925,7.474698,-1.335965,0.02769688,0.2865561,0.6412892,310,70,190
2637.848,2.625625,-10.50576,6.799533,-1.25935,-0.3589941,0.2631203,0.6508766,224,54,166
2637.852,2.629531,-10.50576,5.861006,-1.264138,-0.6040049,0.2258361,0.660464,238,129,197
2637.855,2.633438,-10.64462,4.616021,-1.292869,-0.7829694,0.2173139,0.6679208,177,147,124
2637.859,2.637344,-10.82179,2.94008,-1.37906,-0.8916263,0.1789644,0.6593987,272,57,96
2637.863,2.64125,-10.91756,0.9624691,-1.307234,-0.902279,0.1800297,0.6370281,317,60,185
2637.867,2.645156,-10.93192,-1.556231,-1.312023,-0.7126619,0.1565939,0.5773733,188,124,179
2637.871,2.649063,-10.8601,-3.035848,-1.201889,-0.4548679,0.1438107,0.5230448,191,94,133
2637.875,2.652969,-10.64462,-3.816357,-1.039084,-0.128897,0.128897,0.4783037,277,56,92
2637.879,2.656875,-10.22803,-3.825934,-0.8092402,0.2269013,0.1171791,0.4495416,276,64,211
2637.883,2.660781,-9.706094,-3.035848,-0.344765,0.6977482,0.09693906,0.4388889,180,7,187
2637.887,2.664688,-9.394847,-2.379836,-0.04309563,1.020523,0.07243798,0.4388889,221,141,130
2637.891,2.668594,-9.121908,-1.786074,0.2202666,1.300688,0.06498113,0.4452805,230,157,115
2637.895,2.6725,-9.030929,-1.302446,0.4070143,1.545699,0.0479369,0.4495416,296,72,184
2637.898,2.676406,-9.08839,-0.5075708,0.7422025,1.817341,0.0479369,0.4740427,224,49,193
2637.902,2.680313,-9.198523,0.248997,0.8762778,1.975,0.04154531,0.5017395,155,130,187
2637.906,2.684219,-9.299079,1.177947,1.000776,2.077266,0.05326322,0.5241101,237,108,124
2637.91,2.688125,-9.442731,2.15957,1.063026,2.115615,0.0628506,0.535828,236,63,147
2637.914,2.692031,-9.615114,3.217807,1.158794,2.079396,0.08628642,0.5454154,284,60,164
2637.918,2.695938,-9.658209,4.510676,1.431733,1.930259,0.1022654,0.5550028,186,154,138
2637.922,2.699844,-9.782708,5.233725,1.517924,1.743838,0.1320928,0.5624596,160,98,102
2637.926,2.70375,-9.859322,5.793968,1.503559,1.506284,0.1374191,0.556068,258,79,118
2637.93,2.707656,-9.892841,6.186617,1.517924,1.221858,0.1597897,0.5496764,265,54,177
2637.934,2.711563,-9.902418,6.330269,1.575385,0.8127968,0.169377,0.5305017,194,98,185
2637.938,2.715469,-9.868899,6.167463,1.675941,0.5187838,0.1725728,0.5123922,185,130,108
2637.941,2.719375,-9.849746,5.549759,1.474828,0.2545982,0.1789644,0.4932174,253,131,96
2637.945,2.723281,-9.825804,4.807557,1.359907,0.02769688,0.1778992,0.4729774,284,51,198
2637.949,2.727188,-9.768343,3.56736,1.335965,-0.1800297,0.1874865,0.4612595,211,50,182
2637.953,2.731094,-9.662998,2.63841,1.225831,-0.2503371,0.1789644,0.4495416,205,101,131
2637.957,2.735,-9.538499,1.891419,1.086968,-0.2641856,0.1885518,0.4399542,292,122,104
2637.961,2.738906,-9.361328,1.35033,0.8858546,-0.2269013,0.1917476,0.4378237,245,23,100
2637.965,2.742813,-9.275137,0.9050082,0.6895301,-0.1523328,0.1981392,0.4356932,217,81,183
2637.969,2.746719,-9.227253,0.6560113,0.4740519,-0.01278317,0.2098571,0.4378237,202,119,209
2637.973,2.750625,-9.23683,0.7230489,0.4309563,0.1075917,0.205596,0.4410195,176,139,128
2637.977,2.754531,-9.370905,0.8810662,0.4261679,0.2332929,0.2066613,0.4506069,269,47,129
2637.98,2.758438,-9.466673,1.28808,0.3495534,0.3451457,0.1970739,0.4612595,263,79,179
2637.984,2.762344,-9.744401,1.766921,0.3064578,0.4506069,0.1960087,0.4729774,195,135,176
2637.988,2.76625,-9.849746,2.140416,0.2011129,0.5017395,0.1928129,0.4804343,233,170,100
2637.992,2.770156,-9.945514,2.494758,0.1628057,0.5326322,0.1896171,0.4836301,264,108,107
2637.996,2.774063,-9.955091,2.767697,0.02873042,0.5368933,0.1842907,0.4825648,251,38,165
2638,2.777969,-9.950302,2.973598,-0.1244985,0.5028048,0.1832255,0.4761732,191,75,164
2638.004,2.781875,-10.01255,3.131616,-0.03830723,0.4601942,0.1832255,0.4708469,201,127,126
2638.008,2.785781,-9.988609,2.959233,-0.06224924,0.4101268,0.181095,0.4708469,250,158,145
2638.012,2.789688,-9.998186,2.710236,0.03351882,0.366451,0.1800297,0.4697816,293,64,212
2638.016,2.793594,-9.92636,2.384625,0.1292869,0.3259709,0.1928129,0.4719121,197,39,185
2638.02,2.7975,-9.864111,2.063802,0.248997,0.294013,0.205596,0.4814995,202,144,213
2638.023,2.801406,-9.868899,1.94888,0.296881,0.2801645,0.2119876,0.4846953,238,118,89
2638.027,2.805313,-9.768343,1.944092,0.3974375,0.2620551,0.2258361,0.4900216,246,58,87
2638.031,2.809219,-9.77792,2.092532,0.4405331,0.2364887,0.2354234,0.499609,280,61,214
2638.035,2.813125,-9.691728,2.145205,0.866701,0.1896171,0.257794,0.5123922,198,141,173
2638.039,2.817031,-9.653421,2.06859,1.010353,0.1619202,0.2620551,0.5251754,165,101,156
2638.043,2.820938,-9.672575,1.877054,1.11091,0.1352886,0.2844256,0.5390238,269,43,98
2638.047,2.824844,-9.682152,1.766921,1.283292,0.1171791,0.2897519,0.5507417,228,41,228
2638.051,2.82875,-9.639056,1.532289,1.383849,0.1107875,0.309992,0.5656554,184,66,152
2638.055,2.832656,-9.629479,1.412579,1.517924,0.1171791,0.3217099,0.5848302,219,121,131
2638.059,2.836563,-9.56723,1.359907,1.623269,0.1299623,0.3408846,0.5986786,240,121,98
2638.062,2.840469,-9.68694,1.273715,1.570596,0.149137,0.3515373,0.6146576,319,71,186
2638.066,2.844375,-9.682152,1.326388,1.934515,0.1842907,0.3728426,0.6263755,178,57,209
2638.07,2.848281,-9.648633,1.412579,1.795651,0.2258361,0.3920173,0.6508766,170,148,188
2638.074,2.852188,-9.667786,1.695095,1.814805,0.2514024,0.4037352,0.6700513,248,153,91
2638.078,2.856094,-9.71567,2.011129,1.580173,0.2631203,0.4282363,0.6828345,262,17,117
2638.082,2.86,-9.792285,2.288857,1.479617,0.2567287,0.4399542,0.6956177,248,47,170
2638.086,2.863906,-9.859322,2.446874,1.283292,0.2354234,0.4676511,0.716923,174,128,214
2638.09,2.867813,-9.940725,2.451662,1.120486,0.2226403,0.4687164,0.7286409,203,116,145
2638.094,2.871719,-10.00776,2.37026,1.039084,0.2087918,0.4942827,0.7382283,243,52,134
2638.098,2.875625,-10.1179,2.221819,0.8954314,0.205596,0.4985438,0.7478156,262,70,190
2638.102,2.879531,-10.21366,2.102109,0.8140286,0.2066613,0.5187838,0.7563377,183,46,184
2638.105,2.883438,-10.2807,1.843535,0.7134721,0.2300971,0.5283712,0.7691209,150,144,142
2638.109,2.887344,-10.2807,1.561019,0.6847417,0.2514024,0.5486112,0.7850999,272,125,112
2638.113,2.89125,-10.31901,1.393425,0.6751649,0.2897519,0.5550028,0.7957525,266,66,180
2638.117,2.895156,-10.28549,1.225831,0.7709329,0.3376888,0.5773733,0.8127968,201,73,180
2638.121,2.899063,-10.23282,1.273715,0.818817,0.4111921,0.5986786,0.8330368,222,115,84
2638.125,2.902969,-10.25197,1.254562,0.8283938,0.459129,0.6199839,0.8511463,247,159,122
2638.129,2.906875,-10.2807,1.307234,0.8475474,0.5006743,0.6412892,0.8692558,287,48,122
2638.133,2.910781,-10.25197,1.561019,0.9624691,0.5336975,0.6711166,0.8926916,187,41,204
2638.137,2.914688,-10.27591,1.757344,1.086968,0.5645902,0.6988135,0.9235843,154,162,205
2638.141,2.918594,-10.35253,1.929727,1.23062,0.5741775,0.7360977,0.9438243,200,146,126
2638.145,2.9225,-10.48181,1.915361,1.359907,0.5741775,0.7563377,0.9619338,257,54,128
2638.148,2.926406,-10.41478,1.910573,1.690306,0.572047,0.7904262,0.9800433,262,79,187
2638.152,2.930313,-10.47224,1.910573,1.896208,0.5784386,0.8064052,0.999218,184,156,161
2638.156,2.934219,-10.43393,1.853112,2.020706,0.5795039,0.8554073,1.02798,192,149,90
2638.16,2.938125,-10.45308,1.814805,2.528277,0.5965481,0.8831042,1.050351,245,120,147
2638.164,2.942031,-10.55364,2.145205,2.935291,0.628506,0.90654,1.080178,240,86,199
2638.168,2.945938,-10.61589,2.48997,1.915361,0.6327671,0.9289106,1.10681,235,50,171
2638.172,2.949844,-10.58716,2.437297,1.407791,0.5741775,0.9875001,1.134507,180,146,150
2638.176,2.95375,-10.51533,2.432509,1.795651,0.5592638,1.02585,1.166465,242,164,108
2638.18,2.957656,-10.53449,2.451662,1.403002,0.5592638,1.06633,1.1899,280,83,168
2638.184,2.961563,-10.76433,2.197877,1.000776,0.5336975,1.104679,1.190966,179,76,215
2638.188,2.965469,-11.25754,2.025495,0.8379706,0.5028048,1.155812,1.199488,175,162,178
2638.191,2.969375,-11.37246,1.690306,0.6368576,0.495348,1.205879,1.235707,244,126,114
2638.195,2.973281,-11.50174,1.561019,0.6224924,0.4889564,1.253816,1.261273,276,98,170
2638.199,2.977188,-11.54484,1.685518,0.5650316,0.4783037,1.285774,1.281513,258,41,212
2638.203,2.981094,-11.54963,1.910573,0.5027823,0.4452805,1.341168,1.303884,160,173,208
2638.207,2.985,-11.5209,2.030283,0.4979939,0.3962784,1.392301,1.339037,166,168,114
2638.211,2.988906,-11.44428,1.958457,0.4548983,0.3536678,1.438107,1.365669,233,61,123
2638.215,2.992813,-11.52569,1.699883,0.4836287,0.3078614,1.478587,1.393366,211,50,188
2638.219,2.996719,-11.6023,1.403002,0.6272808,0.2812298,1.530785,1.423193,168,125,193
2638.223,3.000625,-11.71243,1.154005,0.794875,0.2641856,1.584048,1.466869,142,136,203
2638.227,3.004531,-11.89918,0.8762778,0.9672575,0.2663161,1.639442,1.497762,258,151,134
2638.23,3.008438,-12.15776,0.5363012,1.01993,0.2844256,1.675661,1.533981,226,43,204
2638.234,3.012344,-12.35408,0.3830723,1.13964,0.3089267,1.734251,1.575526,178,66,206
2638.238,3.01625,-12.57914,0.2298434,1.206678,0.3334278,1.773665,1.617071,173,98,161
2638.242,3.020156,-12.77067,-0.08619126,1.364695,0.3621899,1.841842,1.674596,263,167,110
2638.246,3.024063,-12.91911,-0.4740519,1.331176,0.3877563,1.890844,1.717206,256,83,130
2638.25,3.027969,-13.03882,-0.8954314,1.489193,0.4303668,1.939847,1.766208,158,96,174
2638.254,3.031875,-13.22557,-1.158794,1.628057,0.4857606,1.989914,1.81095,180,158,185
2638.258,3.035781,-13.43147,-1.221043,1.728614,0.5624596,2.067678,1.87167,185,169,138
2638.262,3.039688,-13.70441,-1.086968,1.795651,0.6295713,2.133725,1.917476,242,87,157
2638.266,3.043594,-14.05396,-0.8475474,2.030283,0.684965,2.206163,1.965413,245,74,217
2638.27,3.0475,-14.68124,-0.4357447,2.456451,0.7254451,2.292449,2.010154,176,124,193
2638.273,3.051406,-16.17044,-0.1197101,2.288857,0.7829694,2.392584,2.058091,165,182,141
2638.277,3.055313,-17.90384,-0.2825158,1.953669,0.7648599,2.4565,2.087918,229,183,154
2638.281,3.059219,-19.69949,-1.039084,1.685518,0.7201188,2.491654,2.120941,270,91,195
2638.285,3.063125,-21.2222,-2.42772,1.651999,0.6934871,2.500176,2.146508,160,86,211
2638.289,3.067031,-22.29959,-3.998317,1.374272,0.7446198,2.482066,2.156095,165,170,174
2638.293,3.070938,-22.94603,-5.453991,1.154005,0.9182579,2.455435,2.15716,208,188,145
2638.297,3.074844,-23.01785,-5.956774,0.344765,1.107875,2.388323,2.158226,251,58,227
2638.301,3.07875,-23.15672,-6.047753,-1.010353,1.353951,2.338255,2.15503,178,103,237
2638.305,3.082656,-23.38177,-6.052542,-0.7517793,1.622398,2.269013,2.135855,151,195,226
2638.309,3.086563,-24.41607,-7.211335,0.248997,1.975,2.200836,2.123072,261,168,131
2638.312,3.090469,-25.03856,-9.35654,0.1867477,2.275405,2.137986,2.139051,236,118,145
2638.316,3.094375,-24.96195,-11.88482,0.8475474,2.65677,2.066613,2.142247,226,122,213
2638.32,3.098281,-23.87977,-13.95341,2.092532,3.146791,2.011219,2.11455,213,138,218
2638.324,3.102188,-20.86786,-14.48971,3.414132,3.854127,1.963282,2.009089,180,182,182
2638.328,3.106094,-17.8368,-12.14339,3.356671,4.29195,1.955826,1.903628,252,104,112
2638.332,3.11,-14.89193,-8.264784,1.144428,4.57318,1.975,1.812015,193,94,208
2638.336,3.113906,-12.49294,-3.203442,0.4788403,4.780907,2.060221,1.737446,149,101,183
2638.34,3.117813,-10.78827,2.533065,0.5123592,4.895955,2.193379,1.660747,161,226,170
2638.344,3.121719,-9.2081,9.423578,-0.3639187,4.913,2.43839,1.54996,248,171,147
2638.348,3.125625,-9.222465,12.39718,-2.715025,4.83417,2.615224,1.469,257,114,257
2638.352,3.129531,-9.557653,14.0396,-2.772486,4.625378,2.761165,1.372061,207,132,209
2638.355,3.133438,-10.47703,15.57189,-3.198653,4.236557,2.834669,1.267665,183,196,147
2638.359,3.137344,-12.42591,17.84638,-4.161122,3.621899,2.890062,1.128115,256,162,166
2638.363,3.14125,-14.48013,19.22544,-4.458003,2.957174,2.866627,1.039698,286,137,176
2638.367,3.145156,-16.42422,19.79047,-4.338293,2.169944,2.804841,0.9502159,255,113,214
2638.371,3.149063,-17.56386,19.13925,-4.668693,1.294296,2.720685,0.8532768,164,195,226
2638.375,3.152969,-17.22389,17.62132,-4.721366,0.40267,2.624812,0.753142,153,191,154
2638.379,3.156875,-16.10819,14.39394,-2.959233,-0.6679208,2.468218,0.6221144,280,138,161
2638.383,3.160781,-14.88715,11.86088,-2.197877,-1.238903,2.349973,0.5347627,242,134,221
2638.387,3.164688,-14.06354,9.481039,-1.527501,-1.655421,2.21575,0.4687164,181,195,226
2638.391,3.168594,-13.41711,7.623138,-1.264138,-1.946238,2.084723,0.4090615,173,213,157
2638.395,3.1725,-12.86165,5.540183,-1.182736,-2.196575,1.900432,0.3270362,259,201,159
2638.398,3.176406,-12.29662,4.314351,-1.479617,-2.303102,1.7726,0.2535329,194,144,250
2638.402,3.180313,-11.69807,3.44765,-1.905785,-2.331864,1.647964,0.1704423,172,110,214
2638.406,3.184219,-11.08037,3.107674,-1.82917,-2.295645,1.533981,0.08841695,193,197,154
2638.41,3.188125,-9.916783,3.303998,-2.183512,-2.124137,1.381648,-0.006391587,226,229,125
2638.414,3.192031,-9.011775,4.074931,-2.485181,-1.948369,1.27086,-0.08735168,257,137,161
2638.418,3.195938,-7.987057,5.051766,-2.887407,-1.780057,1.163269,-0.1725728,198,133,229
2638.422,3.199844,-6.995857,6.004658,-3.505111,-1.604288,1.064199,-0.2556635,186,192,197
2638.426,3.20375,-6.224924,6.751649,-4.094085,-1.449825,0.9576727,-0.314253,157,199,109
2638.43,3.207656,-5.444415,7.517793,-5.731719,-1.2911,0.8245147,-0.3366236,236,136,164
2638.434,3.211563,-5.204994,7.924807,-6.540959,-1.18777,0.7467504,-0.3174488,211,133,209
2638.438,3.215469,-5.176264,8.092402,-6.392518,-1.078048,0.6721819,-0.2609898,194,207,235
2638.441,3.219375,-5.295974,7.776367,-5.813122,-0.9491506,0.5656554,-0.2066613,190,186,160
2638.445,3.223281,-5.568913,7.010222,-4.912902,-0.8223841,0.4079963,-0.165116,217,146,141
2638.449,3.227188,-5.985504,6.081272,-4.10845,-0.7595335,0.2620551,-0.144876,282,100,202
2638.453,3.231094,-6.344634,4.922479,-3.394978,-0.7052051,0.1139833,-0.1278317,157,134,204
2638.457,3.235,-6.497863,3.797204,-2.882619,-0.6530071,-0.01917476,-0.1257012,176,186,177
2638.461,3.238906,-6.459556,2.547431,-2.446874,-0.5784386,-0.181095,-0.1821602,240,194,145
2638.465,3.242813,-6.186617,1.991976,-2.03986,-0.5379585,-0.2961435,-0.2663161,241,151,203
2638.469,3.246719,-5.621585,1.68073,-1.604115,-0.5070659,-0.4101268,-0.3696468,124,166,193
2638.473,3.250625,-5.056554,1.364695,-1.307234,-0.479369,-0.5187838,-0.4751079,194,198,207
2638.477,3.254531,-4.43885,1.091756,-1.005565,-0.4388889,-0.6221144,-0.5763081,207,194,159
2638.48,3.258438,-3.591302,0.8714894,-0.9337386,-0.3802994,-0.7669904,-0.7084008,241,157,143
2638.484,3.262344,-3.050213,0.8092402,-0.9864111,-0.3281014,-0.8692558,-0.8117315,230,110,230
2638.488,3.26625,-2.676717,0.8858546,-1.115698,-0.2886867,-0.9651296,-0.9289106,157,208,216
2638.492,3.270156,-2.451662,1.034295,-1.225831,-0.2460761,-1.076982,-1.054612,190,153,173
2638.496,3.274063,-2.499547,1.268927,-1.283292,-0.2098571,-1.214401,-1.229315,239,123,152
2638.5,3.277969,-2.604891,1.484405,-1.312023,-0.1970739,-1.317732,-1.361408,218,126,241
2638.504,3.281875,-2.825158,1.762132,-1.412579,-0.185356,-1.421063,-1.483913,157,116,217
2638.508,3.285781,-3.069367,1.838747,-1.551443,-0.1832255,-1.515871,-1.573396,189,179,155
2638.512,3.289688,-3.260903,1.853112,-1.541866,-0.1747034,-1.613876,-1.639442,254,200,127
2638.516,3.293594,-3.323152,1.584961,-1.522712,-0.1555286,-1.739577,-1.73212,233,114,238
2638.52,3.2975,-3.375824,1.369483,-1.752556,-0.1299623,-1.823733,-1.820537,163,129,186
2638.523,3.301406,-3.347094,1.321599,-1.939303,-0.108657,-1.911084,-1.91428,143,193,119
2638.527,3.305313,-3.203442,1.426944,-2.121263,-0.08522115,-1.996306,-2.004828,256,178,165
2638.531,3.309219,-2.930503,1.551443,-2.346318,-0.05113269,-2.092179,-2.115615,255,154,125
2638.535,3.313125,-2.700659,1.728614,-2.480393,-0.02876214,-2.171009,-2.199771,165,122,214
2638.539,3.317031,-2.571373,1.915361,-2.624045,-0.02237055,-2.240251,-2.277535,153,202,235
2638.543,3.320938,-2.614468,2.212242,-2.63841,-0.02343582,-2.311624,-2.352104,156,186,121
2638.547,3.324844,-2.987964,2.628833,-2.777274,-0.0298274,-2.413889,-2.446912,253,150,139
2638.551,3.32875,-3.294421,2.810793,-2.796428,-0.03728426,-2.495915,-2.493784,251,130,209
2638.555,3.332656,-3.653552,2.82037,-2.829946,-0.04261058,-2.567287,-2.527873,155,199,203
2638.559,3.336563,-3.883395,2.662352,-2.873042,-0.04261058,-2.645052,-2.561961,175,183,152
2638.562,3.340469,-4.146757,2.437297,-2.772486,-0.04367584,-2.715359,-2.604572,267,184,170
2638.566,3.344375,-4.256891,2.288857,-2.705448,-0.04261058,-2.81869,-2.688727,214,136,213
2638.57,3.348281,-4.371812,2.226608,-2.619257,-0.04261058,-2.900715,-2.751578,164,113,214
2638.574,3.352188,-4.458003,2.293645,-2.442086,-0.04687164,-2.973153,-2.810168,163,209,113
2638.578,3.356094,-4.611232,2.422932,-2.231396,-0.04580637,-3.048787,-2.876214,230,178,150
2638.582,3.36,-4.999093,2.691083,-1.958457,-0.05219796,-3.143595,-2.958239,229,91,203
2638.586,3.363906,-5.530606,2.657564,-1.881843,-0.05432849,-3.219229,-3.00298,159,126,232
2638.59,3.367813,-6.05733,2.413355,-1.862689,-0.04900216,-3.301254,-3.050917,151,211,232
2638.594,3.371719,-6.670246,2.049437,-1.905785,-0.03408846,-3.377954,-3.112703,228,204,155
2638.598,3.375625,-7.513005,1.762132,-2.446874,0.01384844,-3.480219,-3.194728,242,108,118
2638.602,3.379531,-8.250419,2.121263,-3.007117,0.06072007,-3.567571,-3.230947,254,134,209
2638.605,3.383438,-8.868123,3.117251,-3.600879,0.08948221,-3.643204,-3.234143,158,177,204
2638.609,3.387344,-9.562441,4.462792,-4.223372,0.07563377,-3.72736,-3.195793,195,108,139
2638.613,3.39125,-10.16578,5.78918,-4.687847,0.006391587,-3.811516,-3.124421,258,118,156
2638.617,3.395156,-10.31422,6.962338,-5.228936,-0.1459412,-3.893542,-3.031743,246,86,184
2638.621,3.399063,-10.02692,7.374141,-5.664681,-0.2929477,-3.951066,-3.010437,161,90,191
2638.625,3.402969,-9.524134,7.474698,-5.889736,-0.4410195,-4.002198,-3.038134,165,151,143
2638.629,3.406875,-9.035717,7.307103,-5.93762,-0.5848302,-4.042679,-3.115898,237,184,145
2638.633,3.410781,-8.42759,6.502652,-5.918467,-0.7275756,-4.081028,-3.254383,276,122,223
2638.637,3.414688,-8.149862,5.286397,-5.770026,-0.773382,-4.093811,-3.36517,174,83,193
2638.641,3.418594,-8.039729,3.931279,-5.659893,-0.7424893,-4.098072,-3.473827,168,155,152
2638.645,3.4225,-8.264784,3.08852,-5.544971,-0.6402239,-4.093811,-3.568636,269,202,148
2638.648,3.426406,-9.303868,3.169923,-5.415684,-0.4346279,-4.085289,-3.614442,266,90,140
2638.652,3.430313,-10.18015,4.285621,-5.406107,-0.2801645,-4.083159,-3.569701,267,78,172
2638.656,3.434219,-10.84095,5.334281,-5.463568,-0.1747034,-4.088485,-3.491937,195,122,199
2638.66,3.438125,-11.30542,6.359,-5.482722,-0.1299623,-4.091681,-3.407781,196,147,111
2638.664,3.442031,-11.56878,7.254431,-5.358223,-0.144876,-4.099138,-3.335343,237,54,106
2638.668,3.445938,-11.88961,8.192958,-5.185841,-0.2269013,-4.097007,-3.287406,223,82,175
2638.672,3.449844,-12.20085,8.470685,-4.999093,-0.2972088,-4.08742,-3.271427,173,149,193
2638.676,3.45375,-12.65575,8.451532,-4.802769,-0.366451,-4.075702,-3.265035,174,136,97
2638.68,3.457656,-13.04361,8.350975,-4.596867,-0.4324974,-4.055462,-3.267166,223,139,107
2638.684,3.461563,-13.23036,8.283938,-4.204218,-0.5038701,-4.016047,-3.291667,279,83,189
2638.688,3.465469,-13.02446,8.523358,-4.103662,-0.5645902,-3.984089,-3.320429,157,102,168
2638.691,3.469375,-12.64138,8.791508,-4.046201,-0.6508766,-3.939348,-3.353452,172,94,110
2638.695,3.473281,-12.37323,8.935161,-4.007894,-0.7605988,-3.88928,-3.375823,244,137,131
2638.699,3.477188,-12.03805,8.75799,-4.050989,-0.8756474,-3.837082,-3.381149,259,72,138
2638.703,3.481094,-12.00453,8.513781,-4.007894,-1.034372,-3.753992,-3.374758,190,22,184
2638.707,3.485,-11.96622,8.169016,-3.964798,-1.155812,-3.679423,-3.358779,152,117,215
2638.711,3.488906,-12.15297,7.809886,-3.931279,-1.262338,-3.602724,-3.348126,167,137,116
2638.715,3.492813,-12.58392,7.661445,-4.098873,-1.366734,-3.520699,-3.3428,272,84,119
2638.719,3.496719,-13.50809,7.915231,-4.458003,-1.499892,-3.414173,-3.331082,268,65,165
2638.723,3.500625,-14.14494,8.33661,-4.845864,-1.59044,-3.330017,-3.320429,178,153,201
2638.727,3.504531,-14.95418,8.628703,-4.999093,-1.677791,-3.262905,-3.303385,166,136,157
2638.73,3.508438,-15.57189,8.75799,-4.874595,-1.786448,-3.190467,-3.281014,270,36,128
2638.734,3.512344,-16.32846,8.69574,-5.645528,-1.953695,-3.105246,-3.249057,249,51,167
2638.738,3.51625,-16.64928,8.5473,-7.714118,-2.039981,-3.063701,-3.22136,178,36,173
2638.742,3.520156,-16.41465,8.044518,-5.947197,-2.106028,-3.02109,-3.189402,202,134,138
2638.746,3.524063,-16.23748,7.173028,-4.376601,-2.137986,-2.966761,-3.123355,298,128,136
2638.75,3.527969,-15.83046,6.253655,-4.946421,-2.132659,-2.897519,-3.008307,241,20,165
2638.754,3.531875,-14.77701,4.218583,-3.940856,-2.09431,-2.779275,-2.79845,183,9,180
2638.758,3.535781,-13.9151,2.15957,-4.113238,-1.933455,-2.692988,-2.606702,186,110,160
2638.762,3.539688,-12.68448,0.7278373,-4.10845,-1.659682,-2.592854,-2.39578,277,103,96
2638.766,3.543594,-11.48259,0.2202666,-3.576937,-1.299623,-2.482066,-2.184857,283,55,116
2638.77,3.5475,-10.34295,0.4836287,-3.112462,-0.7723167,-2.308428,-1.910019,248,73,184
2638.773,3.551406,-9.605537,0.914585,-2.753332,-0.406931,-2.166748,-1.690575,227,113,202
2638.777,3.555313,-8.848969,1.331176,-2.571373,-0.09906959,-1.986718,-1.431715,204,122,97
2638.781,3.559219,-7.690176,1.853112,-2.365471,0.1640507,-1.778992,-1.162203,236,55,140
2638.785,3.563125,-6.033388,2.552219,-2.001553,0.4303668,-1.470065,-0.8266452,288,72,178
2638.789,3.567031,-4.836287,3.165135,-1.776498,0.5645902,-1.204814,-0.5816344,231,41,186
2638.793,3.570938,-3.849876,3.849876,-1.58975,0.6359629,-0.922519,-0.3547331,182,131,82
2638.797,3.574844,-3.026271,4.865018,-1.197101,0.6657903,-0.6274408,-0.165116,280,116,92
2638.801,3.57875,-2.600103,6.090849,-1.144428,0.6530071,-0.3398194,0.004261058,273,41,177
2638.805,3.582656,-2.42772,7.302315,-1.053449,0.5709817,0.04048005,0.2514024,223,93,164
2638.809,3.586563,-2.413355,7.915231,-1.312023,0.4559332,0.3131877,0.4452805,229,128,99
2638.812,3.590469,-2.657564,8.374917,-1.561019,0.3046656,0.5688512,0.6359629,271,100,90
2638.816,3.594375,-3.160346,8.810662,-2.001553,0.1310275,0.8117315,0.809601,264,41,105
2638.82,3.598281,-4.122815,9.270349,-2.351106,-0.1310275,1.102549,1.037568,251,38,165
2638.824,3.602188,-4.975151,9.351752,-2.949656,-0.3281014,1.295362,1.214401,202,132,160
2638.828,3.606094,-5.784391,9.083601,-3.284845,-0.5273059,1.458347,1.383779,180,139,118
2638.832,3.61,-6.521805,8.552088,-3.725378,-0.7062703,1.61068,1.547829,291,9,88
2638.836,3.613906,-7.292738,7.723695,-2.748544,-0.8468852,1.740642,1.694836,262,60,167
2638.84,3.617813,-8.437167,6.291962,-2.06859,-0.9406285,1.845038,1.885518,179,142,203
2638.844,3.621719,-10.75954,4.424485,0.7134721,-0.8958874,1.809884,2.003762,176,127,130
2638.848,3.625625,-14.87757,1.273715,6.823475,-0.7925567,1.686314,2.102832,256,84,107
2638.852,3.629531,-21.73935,-4.91769,14.39873,-0.7499462,1.433846,2.191249,260,73,183
2638.855,3.633438,-35.43418,-20.94448,20.68111,-0.7744472,0.9267801,2.167813,181,48,191
2638.859,3.637344,-41.458,-31.64177,9.615114,-0.6764429,0.6615292,1.866343,185,143,118
2638.863,3.64125,-35.16603,-26.70014,-5.463568,-0.06178534,0.6263755,1.431715,262,139,105
2638.867,3.645156,-24.3634,-7.40766,-8.212112,0.5677859,1.000283,1.320928,251,90,89
2638.871,3.649063,-12.24395,14.52802,-4.094085,0.9800433,1.204814,1.647964,217,40,158
2638.875,3.652969,-8.33661,19.6947,-5.722142,0.8724516,1.503088,1.683118,174,117,162
2638.879,3.656875,-7.924807,15.27501,-8.485051,0.5038701,1.522263,1.667139,184,110,105
2638.883,3.660781,-7.16824,6.742072,-8.044518,0.3621899,1.675661,1.81095,261,47,100
2638.887,3.664688,-5.975927,-1.752556,-4.860229,0.2918825,1.845038,1.95476,256,53,179
2638.891,3.668594,-4.625598,-1.881843,-1.666364,0.3834952,1.965413,1.861017,191,120,201
2638.895,3.6725,-5.33907,5.554548,-2.513912,0.4293016,1.962217,1.643703,188,144,106
2638.898,3.676406,-8.073248,11.1905,-2.786851,0.205596,1.887649,1.548894,305,118,122
2638.902,3.680313,-10.42914,11.09952,-2.825158,-0.03195793,1.767274,1.710815,247,72,214
2638.906,3.684219,-12.04283,6.92882,-2.705448,-0.2471413,1.657551,1.921737,188,53,178
2638.91,3.688125,-12.20085,5.525817,-3.08852,-0.3067962,1.588309,1.858886,173,135,114
2638.914,3.692031,-11.92312,6.344634,-3.246537,-0.3579289,1.542503,1.717206,281,121,139
2638.918,3.695938,-10.91756,7.939173,-2.959233,-0.4580637,1.48924,1.643703,284,30,189
2638.922,3.699844,-8.820239,8.542512,-2.873042,-0.7073356,1.417867,1.662878,192,45,184
2638.926,3.70375,-7.192182,7.613561,-3.026271,-0.9214537,1.345429,1.660747,196,126,195
2638.93,3.707656,-6.263232,6.641515,-2.944868,-1.103614,1.294296,1.582983,182,123,132
2638.934,3.711563,-6.531382,6.306327,-2.657564,-1.243164,1.239968,1.496697,244,51,111
2638.938,3.715469,-7.297527,7.651869,1.771709,-1.334776,1.185639,1.44876,266,87,173
2638.941,3.719375,-9.279926,9.854534,-0.1628057,-1.194161,1.099353,1.475391,183,132,222
2638.945,3.723281,-10.48181,11.13783,-2.173935,-1.171791,1.04822,1.597897,177,109,110
2638.949,3.727188,-10.80264,12.25352,-5.15711,-1.252751,1.02798,1.741707,259,54,123
2638.953,3.731094,-11.12825,13.25909,-5.774814,-1.351821,1.026915,1.821602,226,64,181
2638.957,3.735,-12.5121,11.51611,-6.047753,-1.616006,0.9906959,1.842907,218,78,167
2638.961,3.738906,-14.22635,7.532158,-4.879383,-1.849299,0.9491506,1.836516,156,126,127
2638.965,3.742813,-15.63414,2.360683,-4.58729,-1.945173,0.90654,1.766208,237,108,113
2638.969,3.746719,-15.76821,-1.388637,-4.606444,-1.848234,0.8863,1.578722,224,72,176
2638.973,3.750625,-14.39394,-2.269703,-4.448427,-1.449825,0.8522115,1.245294,153,71,137
2638.977,3.754531,-13.09628,-0.8858546,-4.271256,-1.058873,0.8074704,1.06633,161,137,189
2638.98,3.758438,-11.92312,0.1532289,-4.19943,-0.6988135,0.7616641,1.001349,239,99,153
2638.984,3.762344,-10.83616,0.593762,-4.022259,-0.3792341,0.6934871,1.004544,265,113,148
2638.988,3.76625,-9.921572,0.3303998,-3.782839,-0.1022654,0.6338323,1.010936,290,85,165
2638.992,3.770156,-9.093178,-0.09097966,-3.303998,0.2343582,0.5624596,0.9608685,224,105,185
2638.996,3.774063,-8.935161,-0.05746084,-3.308787,0.4676511,0.5283712,0.9108011,162,128,114
2639,3.777969,-8.978256,0.1867477,-3.203442,0.6785734,0.495348,0.8863,280,41,109
2639.004,3.781875,-9.045294,0.545878,-2.906561,0.8628642,0.4687164,0.8777779,228,67,189
2639.008,3.785781,-9.275137,0.8283938,-2.542642,1.084439,0.4367584,0.8852347,151,120,190
2639.012,3.789688,-9.509769,0.8523358,-2.106897,1.234641,0.4122573,0.8894958,174,109,122
2639.016,3.793594,-9.68694,1.086968,-1.781286,1.375256,0.3920173,0.8852347,237,176,102
2639.02,3.7975,-9.821015,1.58975,-1.642422,1.505219,0.3696468,0.8692558,221,90,200
2639.023,3.801406,-9.940725,2.355894,-1.58975,1.600027,0.3600594,0.84582,178,73,207
2639.027,3.805313,-10.10832,3.356671,-1.570596,1.666074,0.3526025,0.8234494,190,141,152
2639.031,3.809219,-10.24718,4.098873,-1.561019,1.655421,0.3366236,0.8074704,254,178,106
2639.035,3.813125,-10.35253,4.764461,-1.412579,1.581918,0.334493,0.7946873,224,34,89
2639.039,3.817031,-10.51533,5.444415,-1.283292,1.457282,0.3163835,0.7755125,151,65,180
2639.043,3.820938,-10.75475,6.17704,-1.297657,1.221858,0.3110572,0.7552725,156,147,197
2639.047,3.824844,-10.82179,6.545747,-1.192312,1.00774,0.2918825,0.7435546,182,152,133
2639.051,3.82875,-10.87925,6.780379,-1.024718,0.7744472,0.2759035,0.7350325,221,84,129
2639.055,3.832656,-10.72124,6.80911,-0.890643,0.5379585,0.2545982,0.7275756,233,35,183
2639.059,3.836563,-10.55364,6.315904,-0.7182605,0.221575,0.2311624,0.7062703,173,152,161
2639.062,3.840469,-10.49618,5.631162,-0.5650316,0.005326322,0.205596,0.6902914,165,162,141
2639.066,3.844375,-10.42435,4.79798,-0.4165911,-0.1725728,0.1949434,0.680704,233,164,116
2639.07,3.848281,-10.3621,3.801992,-0.4261679,-0.3025351,0.1800297,0.6764429,258,88,193
2639.074,3.852188,-10.26155,2.734178,-0.5123592,-0.3813647,0.1683118,0.6636597,118,81,194
2639.078,3.856094,-10.04607,1.489193,-0.5985504,-0.3920173,0.1608549,0.6402239,170,119,113
2639.082,3.86,-9.993398,0.5075708,-0.5410896,-0.3270362,0.1512675,0.6178534,232,122,106
2639.086,3.863906,-9.974244,-0.2011129,-0.6272808,-0.2183792,0.1470065,0.5944176,231,65,206
2639.09,3.867813,-10.09395,-0.5506664,-0.6655881,-0.0809601,0.1384844,0.5731123,163,44,200
2639.094,3.871719,-10.06044,-0.6751649,-0.4357447,0.128897,0.128897,0.5496764,135,133,192
2639.098,3.875625,-9.940725,-0.6081272,-0.1915361,0.3036004,0.1065264,0.5294364,209,115,97
2639.102,3.879531,-9.768343,-0.3591302,0.1340753,0.4804343,0.09693906,0.499609,221,86,113
2639.105,3.883438,-9.615114,0.01915361,0.4165911,0.6530071,0.0777643,0.4708469,235,93,161
2639.109,3.887344,-9.481039,0.5267244,0.8571242,0.8596684,0.0660464,0.4442153,240,82,163
2639.113,3.89125,-9.418789,0.9097966,1.173159,0.9981528,0.05432849,0.4346279,135,138,143
2639.117,3.895156,-9.370905,1.16837,1.383849,1.122789,0.04900216,0.4303668,290,88,164
2639.121,3.899063,-9.342175,1.307234,1.58975,1.232511,0.04261058,0.4356932,231,79,224
2639.125,3.902969,-9.418789,1.599327,1.699883,1.325189,0.03728426,0.4378237,170,136,213
2639.129,3.906875,-9.548076,2.236184,1.872266,1.384844,0.03834952,0.4420847,173,135,185
2639.133,3.910781,-9.519346,2.873042,1.675941,1.377387,0.04474111,0.4484763,241,129,127
2639.137,3.914688,-9.619902,3.371036,1.642422,1.333711,0.03834952,0.4516721,245,121,167
2639.141,3.918594,-9.662998,3.912126,1.489193,1.245294,0.05113269,0.4612595,160,83,185
2639.145,3.9225,-9.753978,4.477157,1.235408,1.064199,0.05539375,0.4783037,207,118,127
2639.148,3.926406,-9.672575,4.754884,1.077391,0.8873653,0.0660464,0.4964132,255,187,107
2639.152,3.930313,-9.528923,4.807557,0.8283938,0.6881608,0.0777643,0.5113269,228,82,113
2639.156,3.934219,-9.466673,4.692635,0.6224924,0.4697816,0.08948221,0.5262406,182,98,199
2639.16,3.938125,-9.495404,4.381389,0.3830723,0.2556635,0.1097222,0.5294364,173,138,181
2639.164,3.942031,-9.773131,3.620033,0.3351882,0.007456851,0.1246359,0.5209143,160,175,108
2639.168,3.945938,-9.964667,2.791639,0.4405331,-0.1331581,0.1416802,0.5113269,240,75,138
2639.172,3.949844,-10.22803,1.862689,0.4836287,-0.2173139,0.1502023,0.5049353,230,81,228
2639.176,3.95375,-10.27591,1.024718,0.5267244,-0.241815,0.1608549,0.5028048,160,127,174
2639.18,3.957656,-10.24239,-0.1005565,0.7900865,-0.1938781,0.1725728,0.5028048,190,154,113
2639.184,3.961563,-10.06522,-0.6033388,0.9337386,-0.1033307,0.1906823,0.5049353,252,167,72
2639.188,3.965469,-9.864111,-0.7374141,0.9624691,0.02237055,0.1960087,0.5102617,216,85,185
2639.191,3.969375,-9.557653,-0.4596867,1.010353,0.1619202,0.2098571,0.519849,194,91,188
2639.195,3.973281,-9.375694,0.3830723,1.000776,0.3270362,0.2237055,0.5464807,179,141,128
2639.199,3.977188,-9.299079,1.01993,0.9768343,0.42291,0.2332929,0.5709817,231,122,129
2639.203,3.981094,-9.284714,1.61848,0.9720459,0.4910869,0.2460761,0.5933523,254,61,217
2639.207,3.985,-9.26556,2.06859,0.8044518,0.5294364,0.2545982,0.6178534,129,73,218
2639.211,3.988906,-9.361328,2.422932,0.7086837,0.5390238,0.2705772,0.6370281,150,165,212
2639.215,3.992813,-9.437943,2.667141,0.6320692,0.5262406,0.2812298,0.6519418,127,111,130
2639.219,3.996719,-9.504981,2.8491,0.6368576,0.4964132,0.3121225,0.6583334,257,126,155
2639.223,4.000625,-9.610325,3.035848,0.593762,0.4559332,0.309992,0.6508766,214,96,184
2639.227,4.004531,-9.734824,3.040636,0.5650316,0.3984089,0.3408846,0.6434197,151,151,202
2639.23,4.008438,-9.974244,2.82037,0.5363012,0.3174488,0.3419499,0.6338323,123,155,116
2639.234,4.012344,-10.02213,2.485181,0.5171476,0.2727077,0.3589941,0.6391587,252,90,139
2639.238,4.01625,-9.969456,2.082955,0.5267244,0.2482066,0.3621899,0.648746,245,72,185
2639.242,4.020156,-9.878476,1.824382,0.5171476,0.2396845,0.3813647,0.6615292,175,113,199
2639.246,4.024063,-9.816227,1.675941,0.4788403,0.2407498,0.4005394,0.6817692,196,144,148
2639.25,4.027969,-9.634267,1.613692,0.4501099,0.2439456,0.4218447,0.6956177,212,102,126
2639.254,4.031875,-9.56723,1.479617,0.4501099,0.2492719,0.4356932,0.7115966,236,105,208
2639.258,4.035781,-9.605537,1.441309,0.5602432,0.2631203,0.4580637,0.7265103,172,80,206
2639.262,4.039688,-9.557653,1.513135,0.617704,0.2801645,0.4751079,0.7403588,146,166,220
2639.266,4.043594,-9.658209,1.628057,0.7326257,0.2993393,0.5006743,0.7563377,245,137,117
2639.27,4.0475,-9.720459,1.833958,0.7469909,0.3057309,0.5305017,0.7755125,213,47,158
2639.273,4.051406,-9.797073,2.015918,0.8475474,0.3078614,0.5368933,0.7893609,228,93,175
2639.277,4.055313,-9.782708,2.193089,0.9911995,0.3004046,0.5635249,0.8064052,173,179,235
2639.281,4.059219,-9.83538,2.317587,1.04866,0.3004046,0.5795039,0.8245147,123,154,100
2639.285,4.063125,-9.83538,2.336741,1.082179,0.2950782,0.6008091,0.8372978,234,89,147
2639.289,4.067031,-9.888053,2.494758,1.13964,0.2886867,0.6157228,0.8447547,255,87,200
2639.293,4.070938,-9.864111,2.542642,1.115698,0.2897519,0.6317018,0.8554073,140,71,208
2639.297,4.074844,-9.859322,2.542642,1.04866,0.298274,0.6498113,0.8745821,168,147,130
2639.301,4.07875,-9.907206,2.585738,0.9816227,0.3057309,0.6743124,0.8852347,267,132,132
2639.305,4.082656,-9.974244,2.42772,0.8475474,0.3195793,0.6881608,0.8958874,219,47,195
2639.309,4.086563,-10.02213,2.25055,0.8810662,0.3430151,0.7105314,0.9108011,144,76,195
2639.312,4.090469,-10.05086,2.111686,0.7852981,0.3771036,0.7307714,0.9299759,179,89,129
2639.316,4.094375,-10.20409,2.025495,0.6560113,0.4186489,0.7691209,0.9502159,221,167,128
2639.32,4.098281,-10.27113,2.001553,0.7134721,0.4452805,0.7850999,0.9619338,219,111,135
2639.324,4.102188,-10.29507,1.987187,0.7134721,0.4751079,0.8202536,0.9736517,247,94,219
2639.328,4.106094,-10.41957,2.102109,0.794875,0.5091964,0.8383631,0.9853696,155,174,221
2639.332,4.11,-10.76433,2.264915,0.7757213,0.5305017,0.8852347,1.009871,160,176,118
2639.336,4.113906,-11.09952,2.193089,0.9433155,0.5219796,0.9012137,1.029045,199,67,112
2639.34,4.117813,-11.41077,2.030283,1.11091,0.519849,0.9342369,1.047155,188,86,235
2639.344,4.121719,-11.62624,1.786074,1.13964,0.5251754,0.9523464,1.06633,149,189,199
2639.348,4.125625,-11.94707,1.80044,1.632846,0.5411543,0.9768475,1.085504,163,175,157
2639.352,4.129531,-11.95664,2.116474,1.254562,0.5624596,1.003479,1.10894,232,160,96
2639.355,4.133438,-11.71243,2.092532,1.335965,0.5624596,1.042894,1.134507,271,87,193
2639.359,4.137344,-11.31021,1.714248,1.541866,0.5645902,1.082309,1.170726,180,115,166
2639.363,4.14125,-10.97981,1.479617,1.580173,0.5805691,1.12918,1.205879,148,169,129
2639.367,4.145156,-10.77391,1.345541,1.465251,0.5677859,1.203749,1.233576,259,167,116
2639.371,4.149063,-10.83616,1.403002,1.675941,0.5400891,1.266599,1.253816,215,56,134
2639.375,4.152969,-10.89362,1.436521,1.733402,0.5134575,1.319863,1.283644,135,89,178
2639.379,4.156875,-10.95108,1.35033,1.719037,0.4846953,1.372061,1.317732,153,161,208
2639.383,4.160781,-10.99896,1.460463,1.70946,0.4293016,1.447694,1.364604,131,130,171
2639.387,4.164688,-11.13783,1.628057,1.546654,0.3856257,1.499892,1.404019,256,105,198
2639.391,4.168594,-11.29584,1.891419,1.513135,0.330232,1.557417,1.444499,209,75,188
2639.395,4.1725,-11.51611,2.011129,1.532289,0.2748382,1.605354,1.484979,174,169,196
2639.398,4.176406,-11.81299,1.891419,1.340753,0.2173139,1.659682,1.535046,182,195,112
2639.402,4.180313,-12.29183,1.292869,1.13964,0.1640507,1.725728,1.596831,222,186,117
2639.406,4.184219,-12.718,0.818817,1.000776,0.1533981,1.771535,1.638377,235,63,223
2639.41,4.188125,-13.1298,0.5171476,0.8523358,0.1683118,1.817341,1.674596,172,82,219
2639.414,4.192031,-13.49372,0.3543418,0.7469909,0.1938781,1.858886,1.708684,147,198,144
2639.418,4.195938,-13.79539,0.1963245,0.593762,0.2332929,1.911084,1.759817,225,158,150
2639.422,4.199844,-14.03481,0.08619126,0.5171476,0.2631203,1.949434,1.800297,226,99,216
2639.426,4.20375,-14.23592,-0.04788403,0.3926491,0.2950782,1.976066,1.840777,159,137,175
2639.43,4.207656,-14.39873,-0.2394202,0.3878607,0.3249057,2.016546,1.888714,142,186,219
2639.434,4.211563,-14.70519,-0.545878,0.4501099,0.3600594,2.052765,1.959021,230,191,145
2639.438,4.215469,-15.00207,-0.794875,0.5171476,0.3941478,2.083657,2.011219,191,62,144
2639.441,4.219375,-15.28458,-1.216254,0.6272808,0.4324974,2.11455,2.062352,248,101,231
2639.445,4.223281,-15.62456,-1.551443,0.7805097,0.4761732,2.139051,2.111354,183,150,186
2639.449,4.227188,-15.9789,-1.881843,1.058237,0.5305017,2.179531,2.165683,196,199,118
2639.453,4.231094,-16.61097,-2.197877,1.244985,0.6189186,2.218946,2.227468,232,110,168
2639.457,4.235,-17.06587,-2.106897,2.044648,0.6785734,2.279666,2.272209,202,111,197
2639.461,4.238906,-17.82244,-1.699883,2.705448,0.7850999,2.327603,2.312689,163,104,196
2639.465,4.242813,-19.02433,-1.244985,2.27928,0.8735168,2.360626,2.336125,178,195,115
2639.469,4.246719,-21.35149,-1.096544,1.177947,0.8958874,2.386192,2.347843,212,180,113
2639.473,4.250625,-23.07532,-1.608904,0.6512229,0.9044095,2.349973,2.338255,201,97,200
2639.477,4.254531,-24.57409,-2.480393,1.412579,0.9736517,2.308428,2.306298,167,108,216
2639.48,4.258438,-25.80949,-3.773262,2.298434,1.10894,2.259426,2.262622,185,171,175
2639.484,4.262344,-26.45114,-5.616797,3.011906,1.314536,2.188053,2.238121,223,197,141
2639.488,4.26625,-26.27876,-8.75799,3.912126,1.690575,2.111354,2.234925,190,104,123
2639.492,4.270156,-25.42642,-10.78827,4.548983,2.075135,2.034655,2.218946,218,112,197
2639.496,4.274063,-23.88934,-11.65497,5.018247,2.514024,1.969674,2.178466,115,230,240
2639.5,4.277969,-22.21819,-11.315,4.884171,2.955044,1.907889,2.118811,166,199,157
2639.504,4.281875,-19.59415,-9.509769,3.543418,3.487676,1.848234,2.038916,239,128,155
2639.508,4.285781,-17.49683,-7.005434,2.245761,3.8488,1.815211,1.980327,231,120,227
2639.512,4.289688,-15.37556,-3.552995,1.886631,4.182228,1.824798,1.919607,158,238,238
2639.516,4.293594,-13.33091,0.8331822,0.296881,4.468784,1.885518,1.842907,184,233,155
2639.52,4.2975,-11.00854,6.856994,-0.7326257,4.656271,2.047438,1.729989,229,210,161
2639.523,4.301406,-9.998186,10.3238,-2.169147,4.664793,2.197641,1.635181,231,147,209
2639.527,4.305313,-9.734824,12.76109,-3.86903,4.545483,2.33719,1.540372,146,104,231
2639.531,4.309219,-9.864111,14.47534,-4.855441,4.338822,2.449043,1.45089,221,204,162
2639.535,4.313125,-10.46745,15.89271,-4.022259,4.041613,2.51935,1.373126,274,195,111
2639.539,4.317031,-11.99016,17.42979,-3.744531,3.597398,2.542786,1.300688,271,131,148
2639.543,4.320938,-13.23515,17.92778,-4.041412,3.129747,2.521481,1.259143,163,120,244
2639.547,4.324844,-14.35563,17.35317,-3.505111,2.469283,2.472479,1.204814,185,183,241
2639.551,4.32875,-14.89193,16.09382,-3.744531,1.775796,2.392584,1.120658,141,195,143
2639.555,4.332656,-14.7818,13.80976,-3.428497,0.9214537,2.275405,0.9544769,232,106,175
2639.559,4.336563,-14.44661,11.8082,-2.892196,0.3781689,2.183792,0.8053399,266,137,247
2639.562,4.340469,-13.85285,9.950302,-2.576161,-0.0628506,2.079396,0.6498113,176,222,234
2639.566,4.344375,-13.17769,8.422801,-2.60968,-0.4005394,1.976066,0.5113269,192,226,154
2639.57,4.348281,-12.22479,7.04853,-2.825158,-0.7041398,1.829059,0.370712,220,140,121
2639.574,4.352188,-11.59272,6.411672,-2.37026,-0.8554073,1.702293,0.2748382,244,174,250
2639.578,4.356094,-10.93671,6.133945,-2.035071,-0.9342369,1.564873,0.1725728,164,172,219
2639.582,4.36,-10.14184,5.861006,-2.284068,-0.9736517,1.437042,0.06072007,199,188,154
2639.586,4.363906,-9.346963,5.688623,-2.719813,-1.00774,1.326254,-0.03941478,248,190,154
2639.59,4.367813,-8.42759,5.48751,-2.054225,-1.02798,1.148355,-0.1523328,213,144,202
2639.594,4.371719,-7.728483,5.559336,-2.662352,-0.999218,1.00774,-0.237554,191,131,243
2639.598,4.375625,-7.16824,5.975927,-3.145981,-0.9640643,0.8916263,-0.3217099,149,215,249
2639.602,4.379531,-6.684611,6.426037,-4.122815,-0.9299759,0.7840346,-0.386691,250,206,170
2639.605,4.383438,-6.172252,6.871359,-4.903325,-0.8394284,0.6551376,-0.4442153,280,140,173
2639.609,4.387344,-5.784391,7.278373,-4.841076,-0.7616641,0.5667207,-0.4623248,265,213,224
2639.613,4.39125,-5.57849,7.551312,-4.486734,-0.684965,0.4623248,-0.4655206,165,191,243
2639.617,4.395156,-5.511452,7.632715,-4.410119,-0.6231797,0.3526025,-0.4665858,174,238,153
2639.621,4.399063,-5.521029,7.359776,-4.697424,-0.6050702,0.201335,-0.4665858,256,118,157
2639.625,4.402969,-5.573701,6.646304,-4.836287,-0.6295713,0.09480853,-0.4538026,254,131,228
2639.629,4.406875,-5.621585,5.923255,-5.142745,-0.6572682,-0.01171791,-0.4399542,187,176,225
2639.633,4.410781,-5.549759,5.109226,-5.104438,-0.680704,-0.1075917,-0.4474111,182,222,150
2639.637,4.414688,-5.310339,4.271256,-4.932055,-0.7041398,-0.1928129,-0.4814995,237,228,137
2639.641,4.418594,-4.979939,3.466804,-4.510676,-0.7329019,-0.3195793,-0.5603291,256,145,207
2639.645,4.4225,-4.501099,3.031059,-4.295198,-0.7659251,-0.4122573,-0.6231797,124,161,226
2639.648,4.426406,-3.998317,2.542642,-4.027047,-0.8170578,-0.5060006,-0.6902914,175,175,166
2639.652,4.430313,-3.552995,2.082955,-3.643975,-0.870321,-0.5997439,-0.7680557,272,207,139
2639.656,4.434219,-3.031059,1.546654,-3.074155,-0.9076053,-0.7233146,-0.882039,258,168,158
2639.66,4.438125,-2.671929,1.115698,-2.657564,-0.902279,-0.8287757,-0.9693906,179,172,210
2639.664,4.442031,-2.446874,0.7086837,-2.197877,-0.8756474,-0.9278453,-1.049285,154,216,192
2639.668,4.445938,-2.317587,0.2106897,-1.786074,-0.8149273,-1.023719,-1.125985,159,183,179
2639.672,4.449844,-2.25055,-0.1436521,-1.551443,-0.7350325,-1.120658,-1.20801,228,134,163
2639.676,4.45375,-2.322376,-0.2681506,-1.37906,-0.6029397,-1.255947,-1.353951,232,119,230
2639.68,4.457656,-2.456451,0.02394202,-1.264138,-0.5070659,-1.359277,-1.488174,171,195,209
2639.684,4.461563,-2.700659,0.521936,-1.335965,-0.4346279,-1.45089,-1.617071,168,207,153
2639.688,4.465469,-2.853888,1.249773,-1.369483,-0.3962784,-1.544633,-1.726794,223,203,145
2639.691,4.469375,-2.992752,2.202666,-1.302446,-0.3845605,-1.670335,-1.820537,218,144,221
2639.695,4.473281,-3.074155,2.700659,-1.312023,-0.3941478,-1.759817,-1.867409,185,165,192
2639.699,4.477188,-3.155558,3.026271,-1.398214,-0.4218447,-1.847169,-1.906823,147,209,161
2639.703,4.481094,-3.232172,3.260903,-1.493982,-0.4751079,-1.929194,-1.948369,239,194,141
2639.707,4.485,-3.174711,3.471592,-1.73819,-0.5699165,-2.036786,-2.026133,266,124,254
2639.711,4.488906,-3.083732,3.500323,-2.015918,-0.6615292,-2.112419,-2.097506,144,86,241
2639.715,4.492813,-2.868254,3.624821,-2.140416,-0.7595335,-2.189118,-2.167813,178,232,230
2639.719,4.496719,-2.719813,3.734955,-2.30801,-0.8468852,-2.262622,-2.229598,256,200,162
2639.723,4.500625,-2.686294,3.620033,-2.456451,-0.9246495,-2.33506,-2.283927,215,95,153
2639.727,4.504531,-2.777274,3.380613,-2.408567,-1.033307,-2.430933,-2.344647,258,110,223
2639.73,4.508438,-2.873042,3.112462,-2.322376,-1.098288,-2.507632,-2.394714,174,203,220
2639.734,4.512344,-3.246537,2.935291,-2.331952,-1.140898,-2.573679,-2.454369,172,213,178
2639.738,4.51625,-3.643975,2.762909,-2.264915,-1.171791,-2.648247,-2.512959,211,135,170
2639.742,4.520156,-3.96001,2.446874,-2.126051,-1.198422,-2.735599,-2.575809,227,145,200
2639.746,4.524063,-4.141969,2.245761,-2.087744,-1.192031,-2.799515,-2.619485,178,135,213
2639.75,4.527969,-4.237737,2.030283,-2.149993,-1.171791,-2.869822,-2.680205,197,210,154
2639.754,4.531875,-4.261679,1.819593,-2.078167,-1.156877,-2.935869,-2.743056,241,173,158
2639.758,4.535781,-4.376601,1.747767,-2.059013,-1.118528,-3.025351,-2.837864,248,111,199
2639.762,4.539688,-4.496311,1.80044,-2.001553,-1.074852,-3.093528,-2.911368,145,144,230
2639.766,4.543594,-4.721366,1.728614,-1.963245,-1.029045,-3.161705,-2.979545,160,195,141
2639.77,4.5475,-5.094861,1.546654,-2.020706,-0.9906959,-3.224555,-3.034938,238,189,159
2639.773,4.551406,-5.363012,1.316811,-2.193089,-0.9470201,-3.294863,-3.080745,209,144,162
2639.777,4.555313,-5.889736,1.091756,-2.580949,-0.8362326,-3.38328,-3.161705,243,95,218
2639.781,4.559219,-6.454768,1.11091,-3.05979,-0.7339672,-3.445065,-3.214968,135,204,225
2639.785,4.563125,-7.043741,1.474828,-3.677494,-0.6231797,-3.519634,-3.246926,170,162,175
2639.789,4.567031,-7.699753,2.111686,-4.185065,-0.5134575,-3.597398,-3.240534,239,110,177
2639.793,4.570938,-8.513781,3.189077,-4.941632,-0.4111921,-3.690076,-3.211772,228,86,225
2639.797,4.574844,-8.887277,3.993528,-5.214571,-0.3771036,-3.752927,-3.207511,149,150,212
2639.801,4.57875,-8.935161,4.936844,-5.535394,-0.3728426,-3.812581,-3.224555,163,165,94
2639.805,4.582656,-8.954314,5.621585,-5.683835,-0.3920173,-3.859453,-3.257579,242,151,135
2639.809,4.586563,-8.762778,5.889736,-5.564125,-0.4335626,-3.900998,-3.30232,211,75,193
2639.812,4.590469,-8.556877,5.626374,-5.430049,-0.4751079,-3.953196,-3.397128,203,111,190
2639.816,4.594375,-8.508993,5.046977,-5.324704,-0.4740427,-3.981958,-3.485545,153,176,143
2639.82,4.598281,-8.729259,4.448427,-5.262455,-0.4197142,-4.004329,-3.564375,225,163,121
2639.824,4.602188,-9.323021,4.247314,-5.190629,-0.3185141,-4.027765,-3.627225,253,72,134
2639.828,4.606094,-10.57758,4.91769,-5.166687,-0.1310275,-4.059723,-3.657053,185,86,213
2639.832,4.61,-11.48738,5.731719,-5.262455,0.01065264,-4.08742,-3.637878,150,155,223
2639.836,4.613906,-12.19127,6.622362,-5.45878,0.1257012,-4.121508,-3.602724,167,150,134
2639.84,4.617813,-12.68448,7.623138,-5.492299,0.1906823,-4.159858,-3.559048,287,80,172
2639.844,4.621719,-13.10586,8.992621,-5.664681,0.205596,-4.216317,-3.494067,271,69,186
2639.848,4.625625,-13.23994,9.935937,-5.6982,0.149137,-4.257862,-3.439739,161,161,164
2639.852,4.629531,-13.42668,10.50576,-5.655104,0.05326322,-4.301538,-3.394998,194,151,130
2639.855,4.633438,-13.76666,10.65899,-5.659893,-0.07243798,-4.335626,-3.354518,241,16,105
2639.859,4.637344,-14.00608,10.24718,-4.826711,-0.2386192,-4.349475,-3.321495,252,114,202
2639.863,4.64125,-13.71878,9.308656,-3.634398,-0.3994742,-4.334561,-3.306581,206,89,184
2639.867,4.645156,-13.22557,8.896853,-3.543418,-0.4974785,-4.29195,-3.326821,137,141,151
2639.871,4.649063,-12.75152,8.714894,-3.562572,-0.6125271,-4.248275,-3.350257,236,105,98
2639.875,4.652969,-12.22479,8.552088,-3.615245,-0.721184,-4.18862,-3.357714,280,78,194
2639.879,4.656875,-11.70765,8.413225,-3.830723,-0.8522115,-4.116182,-3.368366,219,43,173
2639.883,4.660781,-11.61667,8.159439,-3.878607,-0.9448896,-4.050135,-3.373692,185,132,197
2639.887,4.664688,-11.83693,8.092402,-4.094085,-1.037568,-3.980893,-3.371562,279,129,102
2639.891,4.668594,-12.44027,7.8865,-4.295198,-1.133441,-3.910586,-3.358779,239,85,107
2639.895,4.6725,-13.60385,7.795521,-4.601656,-1.251686,-3.810451,-3.350257,269,40,184
2639.898,4.676406,-14.67646,7.920019,-4.740519,-1.353951,-3.731621,-3.361975,192,143,199
2639.902,4.680313,-15.72033,7.987057,-4.783615,-1.464739,-3.657053,-3.360909,187,129,106
2639.906,4.684219,-16.53915,7.781155,-4.735731,-1.581918,-3.580354,-3.3428,278,49,119
2639.91,4.688125,-16.91743,7.311892,-4.774038,-1.680987,-3.498328,-3.320429,260,13,194
2639.914,4.692031,-17.10897,6.665457,-5.281609,-1.767274,-3.393932,-3.290602,211,10,168
2639.918,4.695938,-17.21431,6.41646,-7.019799,-1.773665,-3.3428,-3.247991,187,67,132
2639.922,4.699844,-16.98925,6.129156,-6.215348,-1.738512,-3.298059,-3.193663,276,105,89
2639.926,4.70375,-16.69716,5.765238,-4.371812,-1.662878,-3.256513,-3.116964,300,32,181
2639.93,4.707656,-16.26142,4.922479,-4.592079,-1.516937,-3.172357,-2.955044,193,51,211
2639.934,4.711563,-15.63414,3.912126,-4.338293,-1.409345,-3.092463,-2.777144,208,126,100
2639.938,4.715469,-14.85363,2.044648,-3.945644,-1.201618,-3.010437,-2.53959,263,123,115
2639.941,4.719375,-13.74272,0.4070143,-3.96001,-0.86606,-2.91989,-2.288188,289,75,117
2639.945,4.723281,-12.31577,-0.4309563,-3.308787,-0.314253,-2.753709,-2.042112,278,42,180
2639.949,4.727188,-11.21444,-0.521936,-3.117251,0.09800433,-2.601376,-1.725728,202,106,165
2639.953,4.731094,-9.916783,0.05746084,-2.753332,0.5017395,-2.428803,-1.477522,201,112,107
2639.957,4.735,-8.408436,1.273715,-2.533065,0.8426242,-2.218946,-1.220793,290,46,106
2639.961,4.738906,-6.737283,2.42772,-2.1883,1.097222,-1.973935,-0.9438243,249,59,156
2639.965,4.742813,-4.505888,3.849876,-1.460463,1.28897,-1.601092,-0.5837649,192,160,175
2639.969,4.746719,-3.232172,4.812345,-1.005565,1.335842,-1.294296,-0.334493,197,135,123
2639.973,4.750625,-2.317587,5.683835,-0.7230489,1.314536,-0.9672601,-0.1225054,301,113,121
2639.977,4.754531,-1.838747,6.617573,-0.5410896,1.236772,-0.6295713,0.05219796,275,73,174
2639.98,4.758438,-1.757344,7.809886,-0.5267244,1.058873,-0.1832255,0.2450108,215,49,190
2639.984,4.762344,-1.910573,8.628703,-0.8283938,0.8724516,0.1352886,0.3834952,223,91,93
2639.988,4.76625,-2.059013,9.160216,-1.364695,0.6380934,0.4314321,0.5305017,294,106,109
2639.992,4.770156,-2.255338,9.423578,-1.742979,0.366451,0.7243798,0.6764429,301,40,104
2639.996,4.774063,-2.858677,9.576807,-2.37026,0.07989483,0.9832391,0.8202536,187,61,186
2640,4.777969,-3.505111,9.634267,-2.935291,-0.3206446,1.297492,1.030111,207,135,133
2640.004,4.781875,-4.376601,9.390059,-3.232172,-0.6029397,1.512675,1.213336,181,121,102
2640.008,4.785781,-5.200206,8.858546,-3.639187,-0.84582,1.698032,1.397627,288,60,78
2640.012,4.789688,-6.105214,8.140286,-3.89776,-1.041829,1.856756,1.581918,238,45,176
2640.016,4.793594,-7.187393,6.991069,-4.285621,-1.215467,2.039981,1.817341,221,85,160
2640.02,4.7975,-7.963115,6.0286,-4.338293,-1.275122,2.15503,1.975,170,152,111
2640.023,4.801406,-9.169792,4.826711,-1.278504,-1.281513,2.226403,2.118811,271,127,106
2640.027,4.805313,-12.15297,1.891419,3.945644,-1.269795,2.179531,2.244512,291,30,179
2640.031,4.809219,-19.80962,-6.564901,14.58069,-1.216532,1.845038,2.29671,144,48,175
2640.035,4.813125,-29.91316,-17.70273,22.97476,-1.112136,1.376322,2.179531,212,112,90
2640.039,4.817031,-41.4149,-31.4646,20.67633,-0.9416938,0.8213189,1.819472,274,99,93
2640.043,4.820938,-42.95677,-33.76782,8.245631,-0.535828,0.3781689,1.276187,249,51,100
2640.047,4.824844,-32.01048,-17.18558,-5.439626,0.1917476,0.648746,0.9310411,166,78,154
2640.051,4.82875,-16.78335,8.690952,-6.497863,0.6274408,0.9512811,1.244229,217,137,202
2640.055,4.832656,-8.863335,20.37466,-5.051766,0.7020093,1.10681,1.519067,189,98,114
2640.059,4.836563,-6.766014,22.49113,-8.240842,0.4314321,1.751295,1.587244,252,47,116
2640.062,4.840469,-6.71813,15.80652,-10.23761,0.08309063,1.444499,1.591505,277,18,167
2640.066,4.844375,-5.406107,0.9385271,-9.691728,-0.2471413,1.658617,1.786448,171,102,179
2640.07,4.848281,-5.094861,-7.939173,-6.263232,-0.5816344,1.859952,1.784318,208,105,96
2640.074,4.852188,-4.879383,-4.975151,-3.189077,-0.6253102,1.917476,1.535046,228,108,128
2640.078,4.856094,-6.502652,3.643975,-3.792415,-0.4197142,1.862082,1.300688,265,83,171
2640.082,4.86,-11.56399,6.856994,-4.515464,-0.4218447,1.73212,1.426389,207,56,185
2640.086,4.863906,-14.33648,3.600879,-4.448427,-0.4005394,1.634116,1.699097,187,126,103
2640.09,4.867813,-15.38993,0.5027823,-3.730166,-0.3004046,1.562743,1.756621,280,90,143
2640.094,4.871719,-15.41866,0.6703765,-2.8491,-0.1203749,1.528654,1.625594,242,61,145
2640.098,4.875625,-14.13058,2.853888,-2.873042,0.05219796,1.467934,1.492435,210,61,188
2640.102,4.879531,-11.37246,4.91769,-3.548207,0.1161138,1.380583,1.474326,202,116,189
2640.105,4.883438,-9.232042,5.070919,-3.189077,0.03089267,1.327319,1.498827,265,108,113
2640.109,4.887344,-7.273585,4.673482,-3.040636,-0.06817692,1.257012,1.449825,237,50,114
2640.113,4.89125,-6.17704,5.702988,2.30801,-0.1608549,1.219728,1.372061,234,51,201
2640.117,4.895156,-7.201759,8.590396,0.3974375,-0.02237055,1.146225,1.327319,198,136,181
2640.121,4.899063,-8.355764,11.066,-0.9864111,0,1.135572,1.400823,203,117,99
2640.125,4.902969,-8.446743,14.40352,-3.634398,-0.1235707,1.143029,1.55209,245,73,131
2640.129,4.906875,-8.365341,17.43936,-5.161899,-0.314253,1.177117,1.707619,236,48,215
2640.133,4.910781,-9.519346,18.04749,-4.989516,-0.6902914,1.177117,1.824798,215,49,200
2640.137,4.914688,-11.48738,14.51365,-4.060566,-1.42852,1.102549,1.980327,182,145,110
2640.141,4.918594,-13.87679,9.016563,-3.514688,-1.91215,1.022654,2.049569,263,115,142
2640.145,4.9225,-15.30374,3.074155,-3.581726,-2.153965,0.9534117,1.948369,236,81,213
2640.148,4.926406,-15.58146,-0.56982,-3.366248,-2.087918,0.9182579,1.667139,192,63,181
2640.152,4.930313,-15.1936,-1.881843,-3.428497,-1.687379,0.8948221,1.212271,165,137,132
2640.156,4.934219,-14.47534,-1.517924,-3.222595,-1.285774,0.870321,1.001349,242,151,105
2640.16,4.938125,-13.13938,-0.8379706,-3.045425,-0.870321,0.8149273,0.9534117,230,52,112
2640.164,4.942031,-11.45386,-0.3878607,-3.055001,-0.4878911,0.7691209,0.9811085,167,75,211
2640.168,4.945938,-9.418789,0.1915361,-2.643199,-0.08735168,0.6934871,0.9843043,198,156,192
2640.172,4.949844,-8.499416,0.8475474,-2.389413,0.1736381,0.6455502,0.9491506,147,131,116
2640.176,4.95375,-8.269573,1.297657,-2.37026,0.4048005,0.6157228,0.9139969,248,76,107
2640.18,4.957656,-8.418013,1.47004,-2.169147,0.608266,0.5858954,0.902279,268,80,216
2640.184,4.961563,-8.748413,1.278504,-1.805228,0.7840346,0.5624596,0.9097358,179,144,166
2640.188,4.965469,-9.08839,0.9002198,-1.235408,0.994957,0.5294364,0.9310411,183,116,133
2640.191,4.969375,-9.303868,0.6607997,-0.9433155,1.155812,0.5038701,0.9395632,234,110,140
2640.195,4.973281,-9.471462,0.7517793,-0.7469909,1.312406,0.5006743,0.9289106,229,42,224
2640.199,4.977188,-9.586383,1.235408,-0.617704,1.44876,0.4814995,0.8937569,162,67,216
2640.203,4.981094,-9.816227,2.145205,-0.4022259,1.576591,0.4783037,0.8554073,187,124,125
2640.207,4.985,-10.02692,2.959233,-0.3639187,1.616006,0.4697816,0.829841,243,127,149
2640.211,4.988906,-10.1993,3.605668,-0.2681506,1.605354,0.4612595,0.8064052,214,71,182
2640.215,4.992813,-10.24239,4.299986,-0.1484405,1.546764,0.459129,0.7914915,193,55,224
2640.219,4.996719,-10.35253,5.12838,-0.07182605,1.401888,0.4506069,0.7701862,195,136,206
2640.223,5.000625,-10.4483,5.597643,0.01915361,1.249555,0.4452805,0.7563377,233,100,140
2640.227,5.004531,-10.41957,5.932832,0.1388637,1.069525,0.4378237,0.7446198,227,78,113
2640.23,5.008438,-10.36689,6.167463,0.2154781,0.8628642,0.4282363,0.7339672,233,48,214
2640.234,5.012344,-10.23761,6.095637,0.2825158,0.6338323,0.4175837,0.7201188,188,95,198
2640.238,5.01625,-10.10832,5.750872,0.3830723,0.3195793,0.40267,0.6902914,192,149,123
2640.242,5.020156,-10.00297,5.391742,0.5363012,0.0958738,0.3920173,0.6732471,282,82,93
2640.246,5.024063,-10.02213,4.759673,0.5650316,-0.1001349,0.3760383,0.6711166,251,81,200
2640.25,5.027969,-9.955091,3.950433,0.6033388,-0.2524677,0.3643204,0.6817692,209,65,185
2640.254,5.031875,-9.797073,2.681506,0.3495534,-0.3653857,0.3515373,0.6945524,189,152,97
2640.258,5.035781,-9.792285,1.742979,0.1292869,-0.3792341,0.3451457,0.6945524,251,137,123
2640.262,5.039688,-9.883264,1.053449,0.01915361,-0.3430151,0.3376888,0.6870956,233,88,208
2640.266,5.043594,-10.05086,0.5554548,-0.05746084,-0.2620551,0.3312972,0.6636597,196,60,166
2640.27,5.0475,-10.22803,0.2825158,-0.05746084,-0.1193096,0.3121225,0.6359629,192,147,178
2640.273,5.051406,-10.1179,0.1675941,-0.009576807,0.006391587,0.3036004,0.5965481,273,179,114
2640.277,5.055313,-9.92636,0.2585738,0.1244985,0.144876,0.2865561,0.5667207,243,36,130
2640.281,5.059219,-9.830592,0.320823,0.248997,0.294013,0.2727077,0.5390238,274,77,187
2640.285,5.063125,-9.548076,0.3351882,0.5123592,0.4548679,0.2556635,0.5134575,169,153,192
2640.289,5.067031,-9.471462,0.5027823,0.7469909,0.6689861,0.2439456,0.4910869,156,117,150
2640.293,5.070938,-9.404424,0.7278373,0.8523358,0.8181231,0.2332929,0.4814995,245,3,123
2640.297,5.074844,-9.409213,0.8810662,0.9816227,0.9502159,0.2258361,0.4740427,241,55,211
2640.301,5.07875,-9.461885,1.211466,0.9720459,1.074852,0.2151834,0.4644553,156,19,166
2640.305,5.082656,-9.519346,1.556231,0.9768343,1.211206,0.2002697,0.4559332,150,150,111
2640.309,5.086563,-9.619902,1.896208,1.154005,1.285774,0.1960087,0.4506069,235,128,126
2640.312,5.090469,-9.672575,2.346318,1.034295,1.326254,0.1970739,0.4548679,243,69,200
2640.316,5.094375,-9.77792,2.853888,1.010353,1.317732,0.1928129,0.4665858,210,87,216
2640.32,5.098281,-9.71567,3.251326,0.8236054,1.261273,0.1960087,0.4814995,169,122,112
2640.324,5.102188,-9.682152,3.725378,0.794875,1.135572,0.2045308,0.4942827,258,142,101
2640.328,5.106094,-9.653421,3.974375,0.5650316,1.002414,0.2183792,0.5060006,255,82,158
2640.332,5.11,-9.591172,4.266467,0.4357447,0.8436894,0.2247708,0.5187838,162,82,199
2640.336,5.113906,-9.643844,4.462792,0.3495534,0.6615292,0.2503371,0.5262406,147,129,193
2640.34,5.117813,-9.749189,4.544195,0.1915361,0.3962784,0.2652508,0.5219796,163,159,136
2640.344,5.121719,-9.859322,4.247314,0.2154781,0.1960087,0.278034,0.5187838,249,72,120
2640.348,5.125625,-9.916783,3.715801,0.4022259,0.01917476,0.2929477,0.5230448,252,39,219
2640.352,5.129531,-10.02213,2.959233,0.6560113,-0.1203749,0.3014698,0.5294364,126,150,164
2640.355,5.133438,-10.01734,1.733402,0.7900865,-0.2279666,0.314253,0.5294364,197,150,136
2640.359,5.137344,-10.08438,1.067814,0.8762778,-0.2492719,0.3217099,0.5262406,224,164,149
2640.363,5.14125,-10.04128,0.6320692,0.9528923,-0.2269013,0.3281014,0.519849,190,42,201
2640.367,5.145156,-10.00297,0.5410896,1.01993,-0.1768339,0.3398194,0.5209143,159,37,209
2640.371,5.149063,-9.921572,0.4453215,1.16837,-0.1001349,0.3483415,0.5326322,162,159,112
2640.375,5.152969,-9.629479,0.3926491,1.412579,0.02343582,0.3611246,0.5550028,259,176,115
2640.379,5.156875,-9.442731,0.4165911,1.422156,0.1246359,0.3717773,0.5784386,241,88,139
2640.383,5.160781,-9.217676,0.4979939,1.537077,0.2205097,0.3802994,0.5965481,136,84,219
2640.387,5.164688,-9.11712,0.6943185,1.493982,0.314253,0.3984089,0.6135923,183,132,188
2640.391,5.168594,-9.155427,1.091756,1.513135,0.4197142,0.4090615,0.6295713,171,162,85
2640.395,5.1725,-9.141062,1.541866,1.532289,0.4814995,0.4356932,0.6412892,246,75,122
2640.398,5.176406,-9.303868,1.910573,1.460463,0.5219796,0.4399542,0.6551376,237,92,206
2640.402,5.180313,-9.35654,2.25055,1.302446,0.535828,0.4623248,0.6689861,182,153,198
2640.406,5.184219,-9.548076,2.667141,1.25935,0.5145227,0.4740427,0.6870956,201,140,134
2640.41,5.188125,-9.619902,2.844312,1.096544,0.4676511,0.4900216,0.6934871,267,76,157
2640.414,5.192031,-9.610325,2.96881,0.9481039,0.406931,0.5038701,0.6998787,249,71,233
2640.418,5.195938,-9.629479,3.055001,0.818817,0.3334278,0.5219796,0.7105314,165,92,189
2640.422,5.199844,-9.543288,3.040636,0.6272808,0.2545982,0.5347627,0.7179882,143,141,144
2640.426,5.20375,-9.514557,2.911349,0.5267244,0.1565939,0.5603291,0.7318367,270,120,105
2640.43,5.207656,-9.572018,2.614468,0.4501099,0.09374327,0.5795039,0.7435546,252,22,183
2640.434,5.211563,-9.648633,2.355894,0.3399766,0.04261058,0.5976133,0.7520767,171,65,199
2640.438,5.215469,-9.691728,1.958457,0.3734955,0.0181095,0.6093313,0.7627293,138,157,214
2640.441,5.219375,-9.763554,1.537077,0.3782839,0.02450108,0.6348976,0.773382,228,162,122
2640.445,5.223281,-9.80665,1.575385,0.4644751,0.05645902,0.6476808,0.7808388,243,85,109
2640.449,5.227188,-9.979033,1.61848,0.3878607,0.09480853,0.6636597,0.7850999,239,65,203
2640.453,5.231094,-10.18015,1.910573,0.3064578,0.128897,0.6785734,0.7978831,167,108,205
2640.457,5.235,-10.36689,1.972822,0.3064578,0.1576591,0.6902914,0.813862,147,145,125
2640.461,5.238906,-10.38605,2.121263,0.5027823,0.1992044,0.7052051,0.8351673,227,66,166
2640.465,5.242813,-10.45787,2.044648,0.5315128,0.2354234,0.7105314,0.84582,265,104,184
2640.469,5.246719,-10.50097,2.06859,0.521936,0.2769688,0.721184,0.8543421,165,99,181
2640.473,5.250625,-10.4866,2.006341,0.4596867,0.3206446,0.7307714,0.8596684,163,140,138
2640.477,5.254531,-10.49139,2.130839,0.4213795,0.3771036,0.7467504,0.8671253,236,184,119
2640.48,5.258438,-10.3621,2.221819,0.3064578,0.4101268,0.7563377,0.8767126,240,78,217
2640.484,5.262344,-10.34295,2.303222,0.344765,0.4399542,0.7755125,0.8926916,191,102,188
2640.488,5.26625,-10.23282,2.327164,0.3687071,0.4665858,0.7882957,0.9097358,203,128,200
2640.492,5.270156,-10.12747,2.255338,0.320823,0.4889564,0.8191884,0.9278453,243,138,140
2640.496,5.274063,-10.1562,2.149993,0.3016694,0.499609,0.8372978,0.942759,252,65,146
2640.5,5.277969,-10.23761,2.054225,0.3160346,0.5166533,0.870321,0.9640643,230,68,207
2640.504,5.281875,-10.22803,1.996764,0.272939,0.531567,0.8926916,0.9853696,165,168,193
2640.508,5.285781,-10.40041,2.121263,0.5746084,0.5379585,0.9299759,1.000283,162,163,126
2640.512,5.289688,-10.63504,2.130839,0.4596867,0.5411543,0.9640643,1.029045,234,84,125
2640.516,5.293594,-10.72124,1.910573,1.01993,0.5241101,1.001349,1.049285,235,88,216
2640.52,5.2975,-11.01812,1.972822,1.029507,0.5251754,1.026915,1.067395,153,117,200
2640.523,5.301406,-11.23359,2.164358,1.273715,0.519849,1.051416,1.091896,161,150,112
2640.527,5.305313,-11.30542,2.30801,0.9097966,0.4964132,1.097222,1.123854,221,152,168
2640.531,5.309219,-11.20965,2.092532,1.058237,0.46339,1.138768,1.138768,197,110,195
2640.535,5.313125,-10.93671,2.011129,1.446098,0.4420847,1.183509,1.162203,142,65,220
2640.539,5.317031,-10.80743,2.121263,1.264138,0.4303668,1.227185,1.188835,151,161,149
