t_native_s,t_opt_s,ax,ay,az,gx,gy,gz,mx,my,mz
2642.492,0.00184375,-9.787496,-0.1628057,-0.3974375,0.008522115,-0.0181095,0.02024002,916,-603,494
2642.496,0.00575,-9.849746,-0.1244985,-0.4165911,0.01597897,-0.01704423,0.02130529,944,-637,491
2642.5,0.00965625,-9.888053,-0.1292869,-0.3591302,0.02237055,-0.0181095,0.02556635,933,-614,529
2642.504,0.0135625,-9.911995,-0.1484405,-0.4022259,0.03195793,-0.0149137,0.02769688,891,-624,493
2642.508,0.01746875,-9.911995,-0.2298434,-0.3495534,0.04048005,-0.01384844,0.03089267,877,-609,528
2642.512,0.021375,-9.907206,-0.2059013,-0.3591302,0.05006743,-0.01917476,0.03621899,923,-643,497
2642.516,0.02528125,-9.964667,-0.2202666,-0.3016694,0.05219796,-0.02343582,0.04048005,921,-665,496
2642.52,0.0291875,-10.00776,-0.2106897,-0.3064578,0.05858954,-0.03195793,0.04474111,903,-635,517
2642.523,0.03309375,-9.959879,-0.2537854,-0.3112462,0.06498113,-0.04367584,0.05113269,928,-639,499
2642.527,0.037,-9.964667,-0.3064578,-0.3351882,0.07456851,-0.05752428,0.05539375,916,-625,536
2642.531,0.04090625,-9.935937,-0.3543418,-0.344765,0.08309063,-0.0660464,0.05965481,908,-656,462
2642.535,0.0448125,-9.83538,-0.3878607,-0.3878607,0.09267801,-0.07350325,0.06498113,933,-647,528
2642.539,0.04871875,-9.830592,-0.4740519,-0.3782839,0.1012001,-0.0809601,0.07030745,921,-618,505
2642.543,0.052625,-9.830592,-0.4596867,-0.4213795,0.1118528,-0.08628642,0.07563377,913,-616,529
2642.547,0.05653125,-9.801862,-0.4692635,-0.3639187,0.1203749,-0.08735168,0.07882957,912,-627,491
2642.551,0.0604375,-9.782708,-0.5363012,-0.3878607,0.1320928,-0.08841695,0.08415589,912,-645,542
2642.555,0.06434375,-9.758766,-0.5075708,-0.4070143,0.1427454,-0.08415589,0.09054748,925,-638,482
2642.559,0.06825,-9.753978,-0.4596867,-0.4740519,0.1587244,-0.09054748,0.0958738,900,-615,514
2642.562,0.07215625,-9.730036,-0.5267244,-0.4453215,0.1736381,-0.08948221,0.1043959,927,-650,533
2642.566,0.0760625,-9.706094,-0.4548983,-0.3639187,0.1874865,-0.09267801,0.1097222,895,-642,502
2642.57,0.07996875,-9.710882,-0.4165911,-0.3878607,0.2066613,-0.08735168,0.1161138,905,-616,500
2642.574,0.083875,-9.720459,-0.3399766,-0.3830723,0.2258361,-0.08522115,0.1246359,928,-652,524
2642.578,0.08778125,-9.730036,-0.296881,-0.4070143,0.2450108,-0.0809601,0.1352886,940,-652,539
2642.582,0.0916875,-9.749189,-0.2585738,-0.320823,0.2631203,-0.0809601,0.1459412,902,-624,520
2642.586,0.09559375,-9.844957,-0.1675941,-0.3351882,0.2897519,-0.0777643,0.1565939,925,-603,524
2642.59,0.0995,-9.849746,-0.1244985,-0.296881,0.3131877,-0.07882957,0.165116,929,-624,496
2642.594,0.1034063,-9.864111,-0.06224924,-0.2537854,0.3398194,-0.07989483,0.1778992,937,-624,525
2642.598,0.1073125,-9.883264,0.06224924,-0.2394202,0.3643204,-0.08202536,0.185356,891,-616,551
2642.602,0.1112188,-9.859322,0.1053449,-0.1867477,0.3994742,-0.08948221,0.201335,921,-614,537
2642.605,0.115125,-9.883264,0.248997,-0.225055,0.4250405,-0.1001349,0.2130529,925,-635,453
2642.609,0.1190313,-9.782708,0.3399766,-0.08140286,0.4516721,-0.1118528,0.2247708,898,-636,548
2642.613,0.1229375,-9.739612,0.4836287,-0.09576807,0.4751079,-0.1225054,0.2407498,931,-625,501
2642.617,0.1268438,-9.706094,0.5889736,-0.01915361,0.5081311,-0.1523328,0.2599245,908,-622,541
2642.621,0.13075,-9.634267,0.6512229,0.02873042,0.5336975,-0.1725728,0.273773,904,-668,510
2642.625,0.1346563,-9.619902,0.7182605,0.05267244,0.556068,-0.1864213,0.294013,906,-668,500
2642.629,0.1385625,-9.552865,0.914585,0.03351882,0.5805691,-0.2034655,0.3121225,912,-575,512
2642.633,0.1424688,-9.433155,1.015142,0.02873042,0.6061355,-0.2194445,0.3408846,917,-641,517
2642.637,0.146375,-9.332598,1.077391,0.05746084,0.628506,-0.2290319,0.3632552,924,-610,496
2642.641,0.1502813,-9.246407,1.192312,0.06224924,0.6498113,-0.2396845,0.3877563,894,-615,516
2642.645,0.1541875,-9.150639,1.312023,0.07182605,0.6711166,-0.2545982,0.4143879,922,-655,546
2642.648,0.1580938,-9.097966,1.431733,0.05746084,0.6988135,-0.2769688,0.4495416,881,-636,527
2642.652,0.162,-9.083601,1.522712,0.03830723,0.7190535,-0.2929477,0.4783037,912,-649,505
2642.656,0.1659063,-9.074024,1.594538,0.09576807,0.7392935,-0.3046656,0.5081311,927,-630,524
2642.66,0.1698125,-9.030929,1.661576,0.05746084,0.753142,-0.3078614,0.5336975,889,-650,524
2642.664,0.1737188,-8.959103,1.776498,-0.01436521,0.7744472,-0.3131877,0.5709817,876,-636,518
2642.668,0.177625,-8.896853,1.771709,-0.06224924,0.7893609,-0.3206446,0.5965481,910,-620,506
2642.672,0.1815313,-8.863335,1.805228,-0.04309563,0.8032094,-0.3366236,0.6253102,890,-651,527
2642.676,0.1854375,-8.791508,1.795651,-0.1149217,0.8149273,-0.3472762,0.648746,949,-622,508
2642.68,0.1893438,-8.63828,1.810016,-0.1436521,0.8213189,-0.3600594,0.6796387,923,-634,480
2642.684,0.19325,-8.566454,1.766921,-0.1723825,0.8181231,-0.3589941,0.6977482,923,-636,488
2642.688,0.1971563,-8.571242,1.776498,-0.2059013,0.809601,-0.3526025,0.7179882,906,-631,497
2642.691,0.2010625,-8.614338,1.699883,-0.225055,0.7946873,-0.3355583,0.737163,908,-676,547
2642.695,0.2049688,-8.580819,1.666364,-0.1388637,0.7659251,-0.3004046,0.7563377,929,-629,514
2642.699,0.208875,-8.676587,1.584961,-0.08619126,0.737163,-0.2673814,0.7691209,906,-624,519
2642.703,0.2127813,-8.781932,1.49877,-0.05746084,0.700944,-0.2386192,0.7797736,887,-620,511
2642.707,0.2166875,-8.973468,1.398214,0,0.6593987,-0.2162487,0.7904262,918,-636,512
2642.711,0.2205938,-9.11712,1.359907,0.1292869,0.5986786,-0.205596,0.7989483,868,-642,501
2642.715,0.2245,-9.251195,1.283292,0.06224924,0.5528722,-0.2024002,0.8074704,904,-651,525
2642.719,0.2284063,-9.414001,1.149217,0.1771709,0.5060006,-0.2130529,0.8085357,913,-675,505
2642.723,0.2323125,-9.586383,1.077391,0.1628057,0.4538026,-0.2258361,0.8085357,923,-651,508
2642.727,0.2362188,-9.619902,1.015142,0.2011129,0.3845605,-0.2428803,0.8074704,898,-618,520
2642.73,0.240125,-9.59596,0.9193734,0.225055,0.3270362,-0.2545982,0.8064052,915,-644,521
2642.734,0.2440313,-9.624691,0.8475474,0.1723825,0.2748382,-0.2663161,0.8053399,895,-640,523
2642.738,0.2479375,-9.615114,0.7469909,0.2059013,0.2247708,-0.2769688,0.8021441,923,-620,502
2642.742,0.2518438,-9.677363,0.7038953,0.2537854,0.1640507,-0.2833603,0.8000136,921,-623,513
2642.746,0.25575,-9.77792,0.5650316,0.2920926,0.1225054,-0.278034,0.8000136,928,-613,480
2642.75,0.2596563,-9.77792,0.5410896,0.2825158,0.08522115,-0.2716424,0.793622,901,-634,506
2642.754,0.2635625,-9.878476,0.4357447,0.3256114,0.04900216,-0.2567287,0.7882957,884,-654,494
2642.758,0.2674688,-10.03649,0.4165911,0.3591302,0.007456851,-0.2407498,0.7797736,908,-642,513
2642.762,0.271375,-10.13226,0.3112462,0.344765,-0.01917476,-0.2343582,0.7680557,927,-632,519
2642.766,0.2752813,-10.27113,0.2633622,0.3064578,-0.0479369,-0.2279666,0.7584683,917,-602,500
2642.77,0.2791875,-10.56322,0.248997,0.4213795,-0.0777643,-0.2173139,0.7510114,896,-647,481
2642.773,0.2830938,-10.81221,0.2059013,0.4548983,-0.1214401,-0.185356,0.7350325,911,-650,516
2642.777,0.287,-11.1091,0.2011129,0.5315128,-0.169377,-0.1555286,0.7275756,914,-649,503
2642.781,0.2909063,-11.28148,0.08619126,0.7038953,-0.2130529,-0.1278317,0.7179882,911,-641,512
2642.785,0.2948125,-11.4778,0.06703765,1.16837,-0.2524677,-0.1075917,0.7084008,925,-641,506
2642.789,0.2987188,-11.48738,0.009576807,1.541866,-0.2993393,-0.1225054,0.6870956,898,-632,517
2642.793,0.302625,-11.44428,-0.1340753,1.848324,-0.3227751,-0.185356,0.6689861,914,-632,506
2642.797,0.3065313,-11.315,-0.296881,1.814805,-0.3430151,-0.2609898,0.6530071,890,-659,518
2642.801,0.3104375,-11.1905,-0.4405331,1.551443,-0.3547331,-0.3067962,0.6370281,889,-640,505
2642.805,0.3143438,-11.06121,-0.4884171,1.091756,-0.3483415,-0.2929477,0.6093313,878,-669,515
2642.809,0.31825,-10.89362,-0.344765,0.4740519,-0.3312972,-0.2492719,0.5784386,887,-620,479
2642.812,0.3221563,-10.74997,-0.1292869,-0.2873042,-0.3057309,-0.205596,0.5464807,872,-639,532
2642.816,0.3260625,-10.64462,0.2681506,-1.130063,-0.2929477,-0.1768339,0.5134575,918,-605,518
2642.82,0.3299688,-10.70208,0.5506664,-1.249773,-0.3195793,-0.1470065,0.4836301,899,-636,476
2642.824,0.333875,-10.817,0.8619126,-1.072602,-0.3579289,-0.1502023,0.4676511,920,-660,471
2642.828,0.3377813,-10.97023,1.120486,-0.6512229,-0.4079963,-0.1778992,0.4484763,905,-653,481
2642.832,0.3416875,-11.05163,1.388637,-0.3256114,-0.4601942,-0.2428803,0.4197142,903,-643,497
2642.836,0.3455938,-10.97981,1.575385,-0.06703765,-0.499609,-0.3589941,0.3856257,881,-648,472
2642.84,0.3495,-10.76912,1.747767,0.1053449,-0.4942827,-0.4282363,0.3621899,889,-624,509
2642.844,0.3534063,-10.56801,1.766921,0.1292869,-0.4687164,-0.4761732,0.3376888,903,-664,464
2642.848,0.3573125,-10.21366,1.695095,-0.09576807,-0.4367584,-0.4868258,0.3110572,902,-634,546
2642.852,0.3612188,-10.11311,1.513135,-0.3782839,-0.390952,-0.4410195,0.2759035,902,-662,509
2642.855,0.365125,-10.04607,1.312023,-0.4884171,-0.3739078,-0.3675162,0.2460761,883,-599,498
2642.859,0.3690313,-10.10353,1.043872,-0.5123592,-0.3781689,-0.2801645,0.2183792,868,-623,532
2642.863,0.3729375,-10.30464,0.6895301,-0.545878,-0.4122573,-0.2141182,0.1896171,882,-625,528
2642.867,0.3768438,-10.44351,0.5315128,-0.56982,-0.5028048,-0.1757686,0.1523328,902,-677,488
2642.871,0.38075,-10.35253,0.4261679,-0.6224924,-0.5933523,-0.1778992,0.1331581,902,-669,550
2642.875,0.3846563,-10.25197,0.4405331,-0.6703765,-0.6817692,-0.1928129,0.1214401,918,-601,501
2642.879,0.3885625,-10.05565,0.4788403,-0.6895301,-0.7584683,-0.1992044,0.1171791,913,-663,471
2642.883,0.3924688,-9.974244,0.5602432,-0.545878,-0.8245147,-0.1832255,0.1203749,899,-625,497
2642.887,0.396375,-10.0748,0.6320692,-0.3256114,-0.8511463,-0.1565939,0.1299623,921,-655,501
2642.891,0.4002813,-10.22324,0.6751649,-0.03830723,-0.8671253,-0.1267665,0.1384844,867,-653,476
2642.895,0.4041875,-10.36689,0.8283938,0.2442086,-0.882039,-0.108657,0.149137,876,-648,492
2642.898,0.4080938,-10.4052,0.842759,0.5075708,-0.90654,-0.1097222,0.165116,896,-643,538
2642.902,0.412,-10.29986,1.015142,0.5410896,-0.9321064,-0.1278317,0.1821602,903,-622,494
2642.906,0.4159063,-10.08917,1.077391,0.6033388,-0.9619338,-0.1502023,0.2002697,897,-656,514
2642.91,0.4198125,-9.878476,1.177947,0.6655881,-0.9906959,-0.169377,0.2247708,879,-647,483
2642.914,0.4237188,-9.768343,1.130063,0.7038953,-1.021589,-0.1725728,0.2684466,901,-642,539
2642.918,0.427625,-9.648633,1.173159,0.6607997,-1.036502,-0.1555286,0.3046656,916,-643,495
2642.922,0.4315313,-9.600749,1.206678,0.7661445,-1.042894,-0.1267665,0.3376888,927,-641,495
2642.926,0.4354375,-9.624691,1.206678,0.890643,-1.038633,-0.0958738,0.3728426,915,-665,501
2642.93,0.4393438,-9.773131,1.134852,0.9959879,-1.009871,-0.07030745,0.4143879,918,-662,539
2642.934,0.44325,-9.787496,1.158794,1.024718,-0.9757822,-0.06817692,0.4442153,909,-630,507
2642.938,0.4471563,-9.821015,1.225831,0.9768343,-0.9278453,-0.07350325,0.4687164,912,-635,480
2642.941,0.4510625,-9.648633,1.225831,0.8619126,-0.8447547,-0.1043959,0.5038701,912,-633,491
2642.945,0.4549688,-9.543288,1.187524,0.7230489,-0.7680557,-0.1331581,0.5336975,876,-602,503
2642.949,0.458875,-9.461885,1.268927,0.617704,-0.6860303,-0.1619202,0.5645902,912,-655,518
2642.953,0.4627813,-9.437943,1.28808,0.4740519,-0.6050702,-0.1896171,0.592287,916,-661,512
2642.957,0.4666875,-9.437943,1.326388,0.5027823,-0.5081311,-0.2098571,0.6199839,870,-641,505
2642.961,0.4705938,-9.514557,1.388637,0.56982,-0.4527374,-0.2290319,0.6338323,889,-637,485
2642.965,0.4745,-9.552865,1.484405,0.6272808,-0.4101268,-0.2428803,0.6423545,876,-635,514
2642.969,0.4784063,-9.639056,1.805228,0.6512229,-0.3781689,-0.2599245,0.6402239,887,-632,504
2642.973,0.4823125,-9.581595,2.097321,0.5602432,-0.3376888,-0.2918825,0.6348976,911,-642,487
2642.977,0.4862188,-9.533711,2.30801,0.4932055,-0.3004046,-0.3185141,0.6338323,866,-630,511
2642.98,0.490125,-9.471462,2.542642,0.3639187,-0.2631203,-0.3451457,0.6370281,879,-601,504
2642.984,0.4940313,-9.586383,2.719813,0.4213795,-0.2237055,-0.3632552,0.644485,855,-664,529
2642.988,0.4979375,-9.734824,2.801216,0.5793968,-0.1896171,-0.3802994,0.6551376,919,-645,485
2642.992,0.5018438,-9.974244,2.681506,0.7852981,-0.1800297,-0.3920173,0.6636597,904,-649,497
2642.996,0.50575,-10.04607,2.715025,1.010353,-0.1864213,-0.4154531,0.6625945,847,-645,488
2643,0.5096563,-10.05086,2.63841,1.120486,-0.2045308,-0.459129,0.6593987,908,-630,471
2643.004,0.5135625,-9.868899,2.604891,1.268927,-0.2450108,-0.5390238,0.6593987,884,-623,499
2643.008,0.5174688,-9.682152,2.604891,1.431733,-0.2854909,-0.5816344,0.6625945,879,-617,510
2643.012,0.521375,-9.437943,2.585738,1.661576,-0.3249057,-0.5976133,0.6679208,887,-656,495
2643.016,0.5252813,-9.370905,2.446874,2.087744,-0.3568636,-0.5784386,0.6743124,876,-629,499
2643.02,0.5291875,-9.351752,2.331952,2.446874,-0.3856257,-0.5166533,0.6817692,889,-639,520
2643.023,0.5330938,-9.433155,2.25055,2.647987,-0.3920173,-0.4474111,0.6828345,860,-666,514
2643.027,0.537,-9.586383,2.207454,2.72939,-0.40267,-0.3898868,0.680704,877,-670,523
2643.031,0.5409063,-9.619902,2.011129,2.719813,-0.4016047,-0.3419499,0.6817692,887,-615,495
2643.035,0.5448125,-9.624691,1.963245,2.63841,-0.40267,-0.3036004,0.684965,894,-649,499
2643.039,0.5487188,-9.643844,1.8579,2.513912,-0.4037352,-0.2833603,0.6924219,822,-620,514
2643.043,0.552625,-9.672575,1.762132,2.39899,-0.406931,-0.2641856,0.6988135,914,-660,490
2643.047,0.5565313,-9.840169,1.766921,2.27928,-0.4048005,-0.2535329,0.700944,890,-628,512
2643.051,0.5604375,-10.00297,1.781286,2.284068,-0.406931,-0.2524677,0.7020093,893,-658,504
2643.055,0.5643438,-10.12747,1.771709,2.217031,-0.4058658,-0.2641856,0.7020093,835,-668,494
2643.059,0.56825,-10.16578,1.728614,2.154781,-0.406931,-0.2812298,0.6998787,889,-671,527
2643.062,0.5721563,-10.13226,1.814805,2.03986,-0.4005394,-0.3057309,0.6913566,877,-648,505
2643.066,0.5760625,-9.983821,1.924938,1.958457,-0.4016047,-0.3526025,0.6828345,883,-632,496
2643.07,0.5799688,-9.907206,1.92015,1.929727,-0.40267,-0.3792341,0.6753777,855,-696,488
2643.074,0.583875,-9.797073,1.934515,1.872266,-0.4005394,-0.4005394,0.6711166,902,-634,516
2643.078,0.5877813,-9.696517,1.910573,1.900996,-0.3994742,-0.4101268,0.6679208,872,-671,492
2643.082,0.5916875,-9.710882,1.853112,1.958457,-0.3802994,-0.4016047,0.6593987,847,-628,517
2643.086,0.5955938,-9.691728,1.8579,2.001553,-0.3611246,-0.3813647,0.6530071,861,-686,477
2643.09,0.5995,-9.720459,1.8579,2.092532,-0.3430151,-0.3579289,0.6455502,886,-620,476
2643.094,0.6034063,-9.773131,1.8579,2.255338,-0.3259709,-0.334493,0.6380934,864,-658,515
2643.098,0.6073125,-9.888053,1.886631,2.327164,-0.3131877,-0.3067962,0.6231797,854,-672,454
2643.102,0.6112188,-9.950302,2.035071,2.384625,-0.3067962,-0.2886867,0.6103965,882,-628,497
2643.105,0.615125,-9.959879,2.154781,2.341529,-0.3057309,-0.2748382,0.5954828,827,-628,511
2643.109,0.6190313,-9.950302,2.355894,2.245761,-0.3078614,-0.2727077,0.5763081,931,-662,480
2643.113,0.6229375,-9.892841,2.446874,2.207454,-0.309992,-0.2705772,0.5571333,890,-679,490
2643.117,0.6268438,-9.825804,2.504335,2.116474,-0.3110572,-0.2748382,0.5454154,851,-676,521
2643.121,0.63075,-9.773131,2.652775,2.140416,-0.3185141,-0.2812298,0.535828,872,-671,472
2643.125,0.6346563,-9.744401,2.72939,2.126051,-0.3270362,-0.2886867,0.5305017,859,-644,493
2643.129,0.6385625,-9.624691,2.796428,2.149993,-0.3462109,-0.2897519,0.5230448,869,-645,468
2643.133,0.6424688,-9.600749,2.806004,2.164358,-0.3621899,-0.2918825,0.515588,892,-654,529
2643.137,0.646375,-9.600749,2.786851,2.15957,-0.3749731,-0.2929477,0.5123922,888,-641,538
2643.141,0.6502813,-9.600749,2.710236,2.197877,-0.3898868,-0.3004046,0.5102617,850,-670,473
2643.145,0.6541875,-9.56723,2.662352,2.221819,-0.4133226,-0.3121225,0.5102617,882,-641,499
2643.148,0.6580938,-9.548076,2.628833,2.197877,-0.4346279,-0.3238404,0.5049353,879,-653,475
2643.152,0.662,-9.351752,2.552219,2.173935,-0.4559332,-0.334493,0.5006743,904,-687,539
2643.156,0.6659063,-9.222465,2.466028,2.130839,-0.4846953,-0.350472,0.4942827,846,-637,517
2643.16,0.6698125,-9.165004,2.355894,2.078167,-0.5230448,-0.366451,0.4857606,874,-693,489
2643.164,0.6737188,-9.050082,2.30801,2.116474,-0.5464807,-0.3675162,0.4804343,895,-679,495
2643.168,0.677625,-9.011775,2.226608,2.078167,-0.5709817,-0.3611246,0.4740427,921,-639,472
2643.172,0.6815313,-8.992621,2.082955,2.173935,-0.5826996,-0.3472762,0.4644553,844,-685,518
2643.176,0.6854375,-8.959103,2.020706,2.221819,-0.5901565,-0.334493,0.4538026,867,-650,507
2643.18,0.6893438,-8.949526,1.92015,2.260126,-0.588026,-0.3270362,0.4463458,880,-609,518
2643.184,0.69325,-8.992621,1.838747,2.260126,-0.5826996,-0.3206446,0.4346279,906,-644,467
2643.188,0.6971563,-8.868123,1.733402,2.240973,-0.572047,-0.314253,0.4261058,851,-678,505
2643.191,0.7010625,-8.853758,1.666364,2.207454,-0.5528722,-0.3185141,0.4101268,853,-644,498
2643.195,0.7049688,-8.734048,1.58975,2.212242,-0.5390238,-0.3206446,0.4048005,857,-640,484
2643.199,0.708875,-8.676587,1.561019,2.226608,-0.5251754,-0.3195793,0.3984089,867,-634,489
2643.203,0.7127813,-8.619126,1.522712,2.255338,-0.515588,-0.3195793,0.3856257,883,-623,502
2643.207,0.7166875,-8.523358,1.527501,2.25055,-0.5006743,-0.3110572,0.3749731,887,-660,537
2643.211,0.7205938,-8.42759,1.503559,2.293645,-0.4857606,-0.3057309,0.3643204,908,-654,509
2643.215,0.7245,-8.30788,1.565808,2.221819,-0.4697816,-0.3110572,0.3557983,854,-666,502
2643.219,0.7284063,-8.178593,1.584961,2.164358,-0.4442153,-0.3121225,0.3515373,819,-646,504
2643.223,0.7323125,-8.178593,1.561019,2.097321,-0.4005394,-0.309992,0.3430151,847,-653,509
2643.227,0.7362188,-8.12592,1.527501,2.135628,-0.3600594,-0.3067962,0.334493,857,-688,493
2643.23,0.740125,-8.09719,1.580173,2.126051,-0.3089267,-0.2961435,0.3270362,870,-680,497
2643.234,0.7440313,-8.111555,1.584961,2.020706,-0.2545982,-0.2822951,0.3195793,896,-640,478
2643.238,0.7479375,-8.063671,1.671153,1.987187,-0.1778992,-0.2684466,0.3174488,892,-680,515
2643.242,0.7518438,-7.972692,1.766921,1.977611,-0.1225054,-0.2567287,0.3131877,860,-663,471
2643.246,0.75575,-7.94875,1.762132,2.087744,-0.07243798,-0.2514024,0.3089267,865,-666,532
2643.25,0.7596563,-7.915231,1.872266,2.073379,-0.0330232,-0.237554,0.3078614,852,-653,435
2643.254,0.7635625,-7.8865,1.905785,2.15957,0.0181095,-0.2130529,0.2961435,853,-670,470
2643.258,0.7674688,-7.920019,2.015918,2.207454,0.04687164,-0.1928129,0.2844256,834,-630,525
2643.262,0.771375,-7.987057,2.121263,2.293645,0.07350325,-0.1768339,0.273773,881,-678,489
2643.266,0.7752813,-8.063671,2.327164,2.284068,0.09161274,-0.1640507,0.2641856,856,-652,502
2643.27,0.7791875,-8.049306,2.408567,2.322376,0.1075917,-0.1502023,0.2545982,878,-641,464
2643.273,0.7830938,-7.97748,2.456451,2.245761,0.1225054,-0.1438107,0.2450108,898,-642,490
2643.277,0.787,-7.881712,2.542642,2.25055,0.1310275,-0.144876,0.2343582,860,-653,504
2643.281,0.7909063,-7.819463,2.676717,2.154781,0.1406149,-0.149137,0.2247708,866,-639,520
2643.285,0.7948125,-7.747637,2.734178,2.130839,0.144876,-0.1363538,0.2226403,859,-631,511
2643.289,0.7987188,-7.752425,2.772486,2.274492,0.1352886,-0.1193096,0.2226403,933,-668,468
2643.293,0.802625,-7.785944,2.863465,2.327164,0.1097222,-0.1012001,0.2226403,865,-631,474
2643.297,0.8065313,-7.852981,2.901772,2.365471,0.07563377,-0.08309063,0.2258361,848,-631,477
2643.301,0.8104375,-7.790732,2.949656,2.317587,0.01065264,-0.07989483,0.2205097,870,-658,488
2643.305,0.8143438,-7.762002,2.973598,2.322376,-0.04261058,-0.0777643,0.2173139,866,-669,487
2643.309,0.81825,-7.742848,2.892196,2.312799,-0.1001349,-0.06817692,0.2087918,855,-665,511
2643.312,0.8221563,-7.623138,2.801216,2.389413,-0.1502023,-0.06498113,0.1960087,872,-664,467
2643.316,0.8260625,-7.589619,2.681506,2.303222,-0.2109224,-0.05858954,0.1747034,865,-648,516
2643.32,0.8299688,-7.565677,2.585738,2.341529,-0.2492719,-0.06072007,0.1512675,864,-672,482
2643.324,0.833875,-7.594408,2.552219,2.317587,-0.2801645,-0.05752428,0.1299623,862,-617,466
2643.328,0.8377813,-7.584831,2.566584,2.475605,-0.3089267,-0.04048005,0.09906959,886,-637,469
2643.332,0.8416875,-7.584831,2.63841,2.48997,-0.3217099,-0.0181095,0.07243798,865,-673,496
2643.336,0.8455938,-7.599196,2.72939,2.523489,-0.3312972,0.01065264,0.04900216,869,-641,487
2643.34,0.8495,-7.61835,2.839523,2.432509,-0.3312972,0.0479369,0.02876214,865,-641,467
2643.344,0.8534063,-7.637503,2.911349,2.37026,-0.3131877,0.108657,0.007456851,809,-690,495
2643.348,0.8573125,-7.819463,2.925714,2.375048,-0.2727077,0.1533981,-0.008522115,856,-656,504
2643.352,0.8612188,-7.94875,2.930503,2.403778,-0.2194445,0.1832255,-0.02130529,921,-621,513
2643.355,0.865125,-8.030152,2.82037,2.422932,-0.1619202,0.1992044,-0.03621899,870,-659,504
2643.359,0.8690313,-8.049306,2.72939,2.542642,-0.09800433,0.2098571,-0.05752428,871,-653,485
2643.363,0.8729375,-7.94875,2.691083,2.604891,-0.0628506,0.2109224,-0.0777643,843,-670,530
2643.367,0.8768438,-7.97748,2.691083,2.566584,-0.03834952,0.2098571,-0.09906959,886,-673,506
2643.371,0.88075,-7.852981,2.810793,2.695871,-0.02450108,0.2066613,-0.1214401,881,-688,487
2643.375,0.8846563,-7.776367,2.868254,2.700659,-0.007456851,0.2130529,-0.1427454,894,-672,518
2643.379,0.8885625,-7.742848,3.064578,2.695871,0.008522115,0.2183792,-0.1555286,845,-675,488
2643.383,0.8924688,-7.733271,3.265691,2.686294,0.02450108,0.2300971,-0.1661813,869,-662,509
2643.387,0.896375,-7.709329,3.53863,2.628833,0.03408846,0.2450108,-0.1747034,864,-651,502
2643.391,0.9002813,-7.704541,3.758897,2.528277,0.03408846,0.2450108,-0.1778992,876,-645,518
2643.395,0.9041875,-7.680599,3.916914,2.475605,0.03728426,0.2450108,-0.1768339,876,-613,503
2643.398,0.9080938,-7.575254,3.964798,2.418144,0.03834952,0.2482066,-0.1736381,860,-679,497
2643.402,0.912,-7.441179,3.902549,2.456451,0.03621899,0.2641856,-0.1661813,880,-681,484
2643.406,0.9159063,-7.383718,3.840299,2.509123,0.03621899,0.3121225,-0.1576591,874,-650,480
2643.41,0.9198125,-7.364564,3.821146,2.63841,0.04261058,0.3579289,-0.1523328,886,-650,473
2643.414,0.9237188,-7.354988,3.734955,2.844312,0.06072007,0.4037352,-0.1512675,866,-649,510
2643.418,0.927625,-7.412448,3.687071,3.098097,0.08841695,0.4474111,-0.1555286,845,-645,503
2643.422,0.9315313,-7.426814,3.557784,3.241749,0.1257012,0.4804343,-0.1672465,866,-652,486
2643.426,0.9354375,-7.268796,3.548207,3.500323,0.1438107,0.4910869,-0.1800297,837,-635,506
2643.43,0.9393438,-7.187393,3.41892,3.548207,0.1523328,0.4910869,-0.1981392,894,-670,483
2643.434,0.94325,-7.211335,3.32794,3.56736,0.1427454,0.4857606,-0.2109224,878,-662,492
2643.438,0.9471563,-7.19697,3.265691,3.572149,0.1352886,0.4814995,-0.2194445,859,-655,534
2643.441,0.9510625,-7.249643,3.313575,3.552995,0.1374191,0.4910869,-0.2386192,842,-654,490
2643.445,0.9549688,-7.16824,3.438074,3.706224,0.1555286,0.4846953,-0.2663161,811,-666,469
2643.449,0.958875,-7.201759,3.529053,3.859453,0.1821602,0.4729774,-0.2961435,849,-680,485
2643.453,0.9627813,-7.235277,3.581726,3.801992,0.2173139,0.427171,-0.3121225,870,-646,482
2643.457,0.9666875,-7.264008,3.754108,3.739743,0.2471413,0.3888215,-0.3174488,873,-655,497
2643.461,0.9705938,-7.311892,3.849876,3.730166,0.2865561,0.3557983,-0.3312972,864,-651,465
2643.465,0.9745,-7.369353,4.031836,3.687071,0.330232,0.3227751,-0.3419499,869,-649,521
2643.469,0.9784063,-7.398083,4.132392,3.62961,0.3930826,0.2993393,-0.350472,839,-640,510
2643.473,0.9823125,-7.508216,4.290409,3.5099,0.4474111,0.2972088,-0.3515373,855,-614,495
2643.477,0.9862188,-7.61835,4.400543,3.524265,0.515588,0.3067962,-0.3547331,843,-654,472
2643.48,0.990125,-7.910442,4.501099,3.639187,0.588026,0.3312972,-0.3536678,871,-662,499
2643.484,0.9940313,-8.106767,4.630386,3.701436,0.6934871,0.3568636,-0.3526025,884,-643,481
2643.488,0.9979375,-8.341399,4.702212,3.706224,0.753142,0.3643204,-0.3515373,894,-648,465
2643.492,1.001844,-8.5473,4.687847,3.739743,0.7925567,0.3621899,-0.3526025,884,-634,512
2643.496,1.00575,-8.734048,4.874595,3.782839,0.809601,0.3579289,-0.3568636,849,-614,484
2643.5,1.009656,-8.8777,4.965574,3.806781,0.7893609,0.3515373,-0.3675162,877,-659,493
2643.504,1.013563,-8.944737,5.204994,3.878607,0.7488809,0.3600594,-0.3728426,909,-632,479
2643.508,1.017469,-9.006987,5.477933,3.940856,0.7041398,0.3739078,-0.3749731,854,-676,521
2643.512,1.021375,-9.26556,5.990293,3.950433,0.6562029,0.3962784,-0.3696468,881,-633,445
2643.516,1.025281,-9.562441,6.41646,3.907337,0.5890912,0.4175837,-0.3557983,865,-691,487
2643.52,1.029188,-9.821015,6.766014,3.768473,0.551807,0.4143879,-0.3408846,886,-650,496
2643.523,1.033094,-10.12268,7.010222,3.768473,0.5368933,0.3930826,-0.3249057,856,-646,507
2643.527,1.037,-10.1993,7.331045,3.687071,0.5550028,0.3632552,-0.3004046,839,-649,495
2643.531,1.040906,-10.16099,7.503428,3.596091,0.6199839,0.3185141,-0.2556635,859,-654,496
2643.535,1.044813,-10.02692,7.637503,3.739743,0.6764429,0.2993393,-0.2087918,870,-620,482
2643.539,1.048719,-9.648633,7.637503,3.86903,0.737163,0.2993393,-0.1523328,867,-647,491
2643.543,1.052625,-9.509769,7.64708,3.969586,0.7989483,0.3057309,-0.08415589,868,-652,498
2643.547,1.056531,-9.466673,7.694964,3.89776,0.8724516,0.3281014,0.008522115,877,-669,513
2643.551,1.060438,-9.260772,7.867347,3.830723,0.9321064,0.3536678,0.06498113,851,-651,473
2643.555,1.064344,-9.174581,8.030152,3.557784,0.9960222,0.3739078,0.1022654,877,-676,476
2643.559,1.06825,-9.399636,7.905654,3.064578,1.06846,0.3984089,0.1299623,889,-621,513
2643.562,1.072156,-10.20888,7.254431,2.260126,1.12705,0.4388889,0.1576591,846,-647,513
2643.566,1.076063,-11.92312,6.143521,1.067814,1.128115,0.4942827,0.1565939,869,-640,483
2643.57,1.079969,-14.38436,4.462792,-0.2825158,1.081243,0.5826996,0.1235707,862,-641,508
2643.574,1.083875,-17.92299,2.226608,-1.695095,0.9598033,0.7190535,0.03621899,929,-673,516
2643.578,1.087781,-18.78969,2.375048,-0.9337386,0.6785734,0.9683254,-0.2024002,894,-662,508
2643.582,1.091688,-17.93736,3.835511,1.690306,0.4239752,1.061003,-0.4154531,878,-635,477
2643.586,1.095594,-16.35719,5.774814,4.548983,0.1608549,0.8596684,-0.5400891,835,-669,446
2643.59,1.0995,-13.85764,7.905654,5.334281,-0.09693906,0.3834952,-0.5379585,848,-653,485
2643.594,1.103406,-12.36845,9.069236,3.730166,-0.3078614,-0.2556635,-0.4101268,871,-663,497
2643.598,1.107313,-11.58315,9.581595,1.642422,-0.2247708,-0.4218447,-0.2705772,868,-639,478
2643.602,1.111219,-11.68849,9.136274,-0.1388637,0.05965481,-0.298274,-0.08522115,852,-609,468
2643.605,1.115125,-12.26789,7.723695,-0.521936,0.4687164,-0.0181095,0.1427454,904,-697,501
2643.609,1.119031,-12.55041,6.38773,0.9241618,0.9044095,0.3483415,0.4378237,872,-684,521
2643.613,1.122938,-12.30141,5.568913,2.983175,0.9470201,0.4783037,0.624245,886,-659,501
2643.617,1.126844,-11.44428,5.358223,4.400543,0.7563377,0.4197142,0.7669904,880,-651,524
2643.621,1.13075,-10.08438,5.650316,4.812345,0.4175837,0.1970739,0.8841695,892,-658,490
2643.625,1.134656,-9.102755,5.78918,3.936068,-0.1214401,-0.1917476,1.017328,866,-658,496
2643.629,1.138563,-7.953538,5.449203,2.193089,-0.4676511,-0.406931,1.08657,862,-675,487
2643.633,1.142469,-6.153098,4.496311,0.08619126,-0.7084008,-0.4772385,1.105744,874,-670,528
2643.637,1.146375,-5.243302,1.632846,-2.868254,-0.8586031,-0.3941478,1.089766,859,-636,536
2643.641,1.150281,-5.15711,-1.197101,-4.381389,-0.9480853,-0.128897,1.016262,841,-677,521
2643.645,1.154188,-5.525817,-4.070143,-4.357447,-0.9608685,0.1139833,0.8990832,872,-647,479
2643.648,1.158094,-6.306327,-6.584055,-2.513912,-0.9576727,0.3217099,0.7126619,882,-644,484
2643.652,1.162,-6.823475,-9.14585,-0.6895301,-0.9821738,0.4367584,0.4825648,877,-670,492
2643.656,1.165906,-6.991069,-10.23282,0.5171476,-1.030111,0.4378237,0.1502023,857,-679,479
2643.66,1.169813,-7.07726,-10.46266,0.9624691,-0.9832391,0.3771036,-0.1118528,827,-696,500
2643.664,1.173719,-7.144298,-9.753978,0.3303998,-0.7968178,0.3291667,-0.366451,891,-669,493
2643.668,1.177625,-7.52737,-7.939173,-0.4740519,-0.3078614,0.3185141,-0.6061355,814,-687,519
2643.672,1.181531,-8.236054,-6.100426,-1.082179,0.1736381,0.3643204,-0.8863,851,-666,499
2643.676,1.185438,-9.2081,-4.343082,-1.503559,0.6583334,0.4250405,-1.080178,856,-652,492
2643.68,1.189344,-10.45787,-2.360683,-1.934515,1.02585,0.4708469,-1.255947,868,-663,486
2643.684,1.19325,-11.14261,-0.9768343,-2.240973,1.264469,0.4740427,-1.45089,913,-676,478
2643.688,1.197156,-11.49696,0.1915361,-2.403778,1.294296,0.4442153,-1.533981,869,-644,515
2643.691,1.201063,-11.66934,1.149217,-2.39899,1.258077,0.4282363,-1.551025,895,-638,488
2643.695,1.204969,-11.76511,2.082955,-1.877054,1.196292,0.4346279,-1.505219,840,-660,527
2643.699,1.208875,-11.94228,2.418144,-1.182736,1.103614,0.46339,-1.34969,847,-672,515
2643.703,1.212781,-12.19606,2.475605,-0.617704,1.031176,0.4612595,-1.185639,897,-643,507
2643.707,1.216688,-12.20564,2.413355,-0.2633622,0.9683254,0.4399542,-1.009871,866,-630,533
2643.711,1.220594,-11.74116,2.327164,-0.5363012,0.9331716,0.40267,-0.8394284,886,-657,506
2643.715,1.2245,-11.16177,2.245761,-0.8236054,0.9502159,0.3515373,-0.6434197,847,-666,521
2643.719,1.228406,-10.62068,1.982399,-1.024718,0.9693906,0.3291667,-0.5219796,841,-656,491
2643.723,1.232313,-10.21366,1.642422,-1.010353,0.9608685,0.3014698,-0.427171,868,-614,508
2643.727,1.236219,-9.720459,1.16837,-0.914585,0.902279,0.2844256,-0.3611246,837,-641,495
2643.73,1.240125,-9.533711,0.9528923,-1.086968,0.7659251,0.2524677,-0.3281014,863,-639,521
2643.734,1.244031,-9.299079,0.8523358,-1.412579,0.6412892,0.2183792,-0.3387541,886,-666,507
2643.738,1.247938,-9.045294,0.7709329,-1.824382,0.5305017,0.1874865,-0.366451,884,-647,484
2643.742,1.251844,-8.671798,0.7134721,-1.944092,0.4474111,0.185356,-0.4122573,853,-666,504
2643.746,1.25575,-8.57603,0.617704,-1.719037,0.3802994,0.2322276,-0.495348,846,-646,493
2643.75,1.259656,-8.710106,0.4165911,-1.47004,0.3440804,0.2790993,-0.5613944,890,-653,500
2643.754,1.263563,-8.772355,0.2633622,-1.321599,0.3131877,0.3195793,-0.6263755,875,-668,519
2643.758,1.267469,-8.8777,0.1771709,-1.446098,0.2897519,0.3387541,-0.6892261,856,-660,476
2643.762,1.271375,-8.968679,0.2394202,-1.675941,0.2801645,0.3568636,-0.7701862,897,-625,498
2643.766,1.275281,-9.131485,0.3399766,-1.905785,0.273773,0.3771036,-0.8202536,858,-670,452
2643.77,1.279188,-9.332598,0.4979939,-1.972822,0.2599245,0.4122573,-0.8575379,901,-639,510
2643.773,1.283094,-9.610325,0.7278373,-1.924938,0.2396845,0.4463458,-0.8852347,872,-645,504
2643.777,1.287,-9.878476,0.9289502,-1.704672,0.2151834,0.4846953,-0.9033442,881,-659,503
2643.781,1.290906,-10.00297,1.11091,-1.374272,0.205596,0.4985438,-0.9033442,857,-621,486
2643.785,1.294813,-10.07959,1.278504,-1.034295,0.1992044,0.5006743,-0.8948221,909,-656,487
2643.789,1.298719,-10.07959,1.335965,-0.8858546,0.1874865,0.4910869,-0.8788432,863,-668,459
2643.793,1.302625,-10.02692,1.316811,-0.9911995,0.1842907,0.4676511,-0.8490158,864,-653,503
2643.797,1.306531,-9.950302,1.292869,-1.039084,0.1928129,0.4612595,-0.8213189,875,-694,500
2643.801,1.310438,-9.907206,1.249773,-0.8858546,0.2034655,0.4538026,-0.7989483,896,-640,465
2643.805,1.314344,-9.864111,1.053449,-0.8140286,0.201335,0.44315,-0.7808388,894,-680,498
2643.809,1.31825,-9.825804,0.7805097,-0.7038953,0.1725728,0.4324974,-0.7723167,871,-622,509
2643.812,1.322156,-9.701305,0.5554548,-0.6368576,0.1427454,0.4442153,-0.773382,887,-674,509
2643.816,1.326063,-9.610325,0.3926491,-0.545878,0.1214401,0.4527374,-0.7797736,860,-619,484
2643.82,1.329969,-9.576807,0.1388637,-0.593762,0.1118528,0.4506069,-0.793622,881,-623,501
2643.824,1.333875,-9.538499,0.009576807,-0.6224924,0.1246359,0.4303668,-0.8106662,914,-655,501
2643.828,1.337781,-9.428366,-0.07182605,-0.6799533,0.1502023,0.4058658,-0.829841,860,-659,496
2643.832,1.341688,-9.232042,-0.1723825,-0.7134721,0.1832255,0.3888215,-0.8532768,889,-655,509
2643.836,1.345594,-9.097966,-0.2633622,-0.6799533,0.2226403,0.3898868,-0.8767126,827,-643,527
2643.84,1.3495,-9.097966,-0.296881,-0.4261679,0.2822951,0.4111921,-0.9054748,881,-670,505
2643.844,1.353406,-9.2081,-0.3687071,-0.1340753,0.3195793,0.4335626,-0.9235843,841,-630,547
2643.848,1.357313,-9.246407,-0.2920926,-0.1867477,0.3494067,0.4452805,-0.9395632,888,-682,489
2643.852,1.361219,-9.251195,-0.07661445,-0.2920926,0.3834952,0.4410195,-0.9555422,857,-661,489
2643.855,1.365125,-9.284714,0.08140286,-0.3639187,0.4442153,0.4282363,-0.9683254,856,-651,496
2643.859,1.369031,-9.169792,0.3878607,-0.5793968,0.4974785,0.4175837,-0.9715212,921,-630,508
2643.863,1.372938,-9.035717,0.617704,-0.6943185,0.5347627,0.4016047,-0.9661948,903,-626,508
2643.867,1.376844,-9.102755,0.7134721,-0.7565677,0.5613944,0.4058658,-0.9491506,894,-619,496
2643.871,1.38075,-9.26556,0.7613561,-0.5746084,0.5784386,0.4324974,-0.9257148,898,-646,465
2643.875,1.384656,-9.428366,0.8954314,-0.320823,0.5848302,0.4410195,-0.9086706,851,-649,489
2643.879,1.388563,-9.437943,0.9672575,-0.2394202,0.5752428,0.4133226,-0.8958874,884,-617,465
2643.883,1.392469,-9.260772,0.9911995,-0.1388637,0.5571333,0.3834952,-0.8863,912,-641,528
2643.887,1.396375,-9.112332,1.024718,-0.08619126,0.5305017,0.3760383,-0.86606,878,-661,500
2643.891,1.400281,-9.150639,1.039084,-0.1484405,0.5134575,0.3824299,-0.8532768,883,-622,504
2643.895,1.404188,-9.289502,1.086968,-0.3639187,0.4889564,0.3856257,-0.8415589,864,-672,466
2643.898,1.408094,-9.222465,1.154005,-0.4118027,0.4527374,0.386691,-0.8319715,878,-663,485
2643.902,1.412,-9.193734,1.144428,-0.3064578,0.4133226,0.3760383,-0.8266452,889,-655,485
2643.906,1.415906,-9.169792,1.086968,-0.1436521,0.3877563,0.366451,-0.8234494,855,-643,520
2643.91,1.419813,-9.121908,0.9672575,-0.1867477,0.3643204,0.3621899,-0.8266452,854,-670,512
2643.914,1.423719,-9.150639,0.9241618,-0.3351882,0.3398194,0.3515373,-0.8255799,882,-616,514
2643.918,1.427625,-9.14585,0.8379706,-0.3926491,0.3206446,0.3440804,-0.8255799,887,-660,476
2643.922,1.431531,-9.083601,0.7996634,-0.3351882,0.3078614,0.3398194,-0.8255799,886,-671,536
2643.926,1.435438,-9.069236,0.866701,-0.2059013,0.298274,0.334493,-0.8266452,897,-660,499
2643.93,1.439344,-8.959103,0.7422025,-0.1244985,0.2897519,0.3206446,-0.8245147,921,-633,535
2643.934,1.44325,-8.858546,0.818817,-0.2202666,0.278034,0.3004046,-0.8223841,914,-636,535
2643.938,1.447156,-8.8777,0.7661445,-0.1819593,0.2716424,0.2961435,-0.8181231,858,-652,518
2643.941,1.451063,-9.002198,0.7900865,-0.1244985,0.2727077,0.3014698,-0.8181231,883,-626,469
2643.945,1.454969,-9.169792,0.7661445,0.009576807,0.2663161,0.3014698,-0.8159926,861,-630,512
2643.949,1.458875,-9.184158,0.794875,0.04309563,0.2396845,0.2961435,-0.8106662,867,-671,537
2643.953,1.462781,-9.112332,0.8762778,0.06224924,0.2162487,0.2897519,-0.809601,906,-625,507
2643.957,1.466688,-9.021352,0.9864111,0.01915361,0.1896171,0.2812298,-0.8064052,904,-650,531
2643.961,1.470594,-8.920795,1.163582,-0.03351882,0.1640507,0.2769688,-0.8032094,876,-642,492
2643.965,1.4745,-8.949526,1.316811,-0.06224924,0.1438107,0.2790993,-0.7978831,942,-640,462
2643.969,1.478406,-9.016563,1.455675,-0.08140286,0.1384844,0.2865561,-0.7925567,886,-664,509
2643.973,1.482313,-9.107543,1.575385,-0.07182605,0.1352886,0.2993393,-0.7861652,895,-660,515
2643.977,1.486219,-9.141062,1.522712,0.1101333,0.1267665,0.3057309,-0.777643,903,-696,473
2643.98,1.490125,-9.23683,1.522712,0.1149217,0.1182444,0.3036004,-0.7648599,899,-598,511
2643.984,1.494031,-9.279926,1.489193,0.1771709,0.1065264,0.2929477,-0.7616641,858,-682,496
2643.988,1.497938,-9.198523,1.493982,0.2154781,0.08415589,0.2759035,-0.7552725,887,-622,494
2643.992,1.501844,-9.2081,1.484405,0.06224924,0.05645902,0.2599245,-0.7467504,902,-634,485
2643.996,1.50575,-9.165004,1.465251,-0.03830723,0.02769688,0.2386192,-0.7382283,891,-619,520
2644,1.509656,-9.021352,1.527501,-0.1628057,0.01171791,0.241815,-0.7350325,911,-623,539
2644.004,1.513563,-9.002198,1.465251,-0.225055,-0.01065264,0.2535329,-0.7307714,905,-652,506
2644.008,1.517469,-9.02614,1.426944,-0.3351882,-0.0330232,0.273773,-0.7243798,962,-654,508
2644.012,1.521375,-9.040505,1.426944,-0.4405331,-0.05326322,0.2844256,-0.7222493,910,-632,488
2644.016,1.525281,-8.978256,1.436521,-0.545878,-0.06391587,0.2854909,-0.721184,898,-632,511
2644.02,1.529188,-8.815451,1.479617,-0.5027823,-0.06924219,0.2790993,-0.7179882,938,-659,476
2644.023,1.533094,-8.66701,1.403002,-0.5363012,-0.07563377,0.2716424,-0.716923,905,-633,516
2644.027,1.537,-8.623914,1.403002,-0.6129156,-0.08202536,0.2567287,-0.7115966,924,-658,494
2644.031,1.540906,-8.628703,1.302446,-0.5506664,-0.08735168,0.2524677,-0.7115966,873,-662,513
2644.035,1.544813,-8.686164,1.28808,-0.5554548,-0.1022654,0.2599245,-0.7094661,882,-616,520
2644.039,1.548719,-8.801085,1.216254,-0.4453215,-0.1395496,0.2716424,-0.7115966,905,-620,535
2644.043,1.552625,-8.834604,1.144428,-0.3351882,-0.1672465,0.273773,-0.7073356,952,-651,491
2644.047,1.556531,-8.801085,1.134852,-0.3782839,-0.1768339,0.2727077,-0.7020093,901,-656,494
2644.051,1.560438,-8.662222,1.154005,-0.4118027,-0.1640507,0.2812298,-0.6924219,887,-640,486
2644.055,1.564344,-8.690952,1.173159,-0.2106897,-0.1310275,0.3227751,-0.6785734,924,-639,478
2644.059,1.56825,-8.829816,1.187524,-0.05267244,-0.1065264,0.3632552,-0.6636597,904,-592,514
2644.062,1.572156,-9.064447,1.120486,0.06703765,-0.09267801,0.3845605,-0.6455502,931,-627,497
2644.066,1.576063,-9.222465,1.101333,-0.03351882,-0.07882957,0.3643204,-0.6274408,927,-643,517
2644.07,1.579969,-9.136274,1.120486,-0.1340753,-0.05113269,0.294013,-0.6093313,906,-631,489
2644.074,1.583875,-8.959103,1.086968,-0.2394202,-0.02663161,0.2354234,-0.5976133,898,-637,457
2644.078,1.587781,-8.825027,1.125275,-0.296881,-0.001065264,0.1949434,-0.5890912,888,-650,495
2644.082,1.591688,-8.69574,1.134852,-0.3543418,0.01278317,0.1757686,-0.5752428,893,-607,508
2644.086,1.595594,-8.719682,1.101333,-0.4788403,0.0181095,0.1800297,-0.5528722,894,-639,532
2644.09,1.5995,-8.872911,1.072602,-0.5889736,0.02876214,0.1874865,-0.5326322,880,-621,472
2644.094,1.603406,-8.954314,0.9241618,-0.5793968,0.03728426,0.1906823,-0.5209143,888,-648,517
2644.098,1.607313,-8.882488,0.7709329,-0.6560113,0.04580637,0.1896171,-0.5060006,922,-650,469
2644.102,1.611219,-8.90643,0.6655881,-0.9002198,0.05539375,0.1608549,-0.4921522,920,-653,492
2644.105,1.615125,-8.99741,0.6224924,-0.9720459,0.0628506,0.1640507,-0.479369,918,-649,525
2644.109,1.619031,-9.294291,0.521936,-0.818817,0.06391587,0.1842907,-0.4655206,920,-611,459
2644.113,1.622938,-9.744401,0.5171476,-0.5171476,0.05752428,0.2205097,-0.4484763,901,-684,537
2644.117,1.626844,-9.859322,0.4118027,-0.4788403,0.03834952,0.2386192,-0.4335626,938,-651,513
2644.121,1.63075,-9.883264,0.225055,-0.5985504,0.02556635,0.2428803,-0.4250405,936,-626,467
2644.125,1.634656,-9.89763,0.1053449,-0.7182605,0.0149137,0.2407498,-0.4261058,935,-615,503
2644.129,1.638563,-9.844957,-0.1675941,-1.053449,0.0149137,0.2290319,-0.4303668,890,-648,491
2644.133,1.642469,-9.768343,-0.3064578,-1.192312,0.03728426,0.205596,-0.4474111,910,-661,502
2644.137,1.646375,-9.557653,-0.5506664,-1.268927,0.08202536,0.1896171,-0.4676511,888,-666,513
2644.141,1.650281,-9.481039,-0.8044518,-1.192312,0.1438107,0.185356,-0.4910869,884,-636,487
2644.145,1.654188,-9.543288,-1.187524,-0.9720459,0.1842907,0.205596,-0.5134575,929,-649,532
2644.148,1.658094,-9.662998,-1.244985,-0.9241618,0.2087918,0.2364887,-0.5475459,897,-648,510
2644.152,1.662,-9.840169,-1.254562,-0.9816227,0.205596,0.2631203,-0.5763081,922,-636,477
2644.156,1.665906,-9.892841,-1.216254,-1.053449,0.2024002,0.2716424,-0.6061355,951,-674,476
2644.16,1.669813,-9.854534,-1.01993,-1.25935,0.2119876,0.2588593,-0.6402239,932,-647,513
2644.164,1.673719,-9.80665,-0.8619126,-1.426944,0.2439456,0.2311624,-0.684965,938,-633,506
2644.168,1.677625,-9.844957,-0.6607997,-1.522712,0.2886867,0.2141182,-0.7030745,918,-622,452
2644.172,1.681531,-9.868899,-0.4932055,-1.565808,0.3408846,0.1949434,-0.716923,912,-649,493
2644.176,1.685438,-9.849746,-0.248997,-1.699883,0.3813647,0.1821602,-0.7233146,902,-632,484
2644.18,1.689344,-9.854534,-0.1053449,-1.80044,0.4101268,0.1736381,-0.7254451,932,-635,487
2644.184,1.69325,-9.921572,0.04788403,-1.867477,0.427171,0.185356,-0.721184,896,-618,492
2644.188,1.697156,-9.92636,0.2106897,-1.838747,0.4442153,0.1874865,-0.7137272,918,-588,495
2644.191,1.701063,-10.03649,0.320823,-1.766921,0.4644553,0.1874865,-0.6998787,901,-614,545
2644.195,1.704969,-10.09395,0.4261679,-1.556231,0.4836301,0.1928129,-0.6743124,923,-637,500
2644.199,1.708875,-10.20409,0.6320692,-1.508347,0.4942827,0.1928129,-0.6625945,915,-641,530
2644.203,1.712781,-10.21366,0.8140286,-1.403002,0.5123922,0.1917476,-0.6498113,880,-627,503
2644.207,1.716688,-10.18972,1.16837,-1.340753,0.5486112,0.1874865,-0.6348976,901,-635,481
2644.211,1.720594,-10.12747,1.484405,-1.149217,0.6125271,0.1757686,-0.6157228,910,-645,486
2644.215,1.7245,-10.29507,1.790863,-0.9193734,0.6753777,0.1608549,-0.6061355,909,-637,528
2644.219,1.728406,-10.63026,2.149993,-0.9911995,0.7286409,0.1565939,-0.5890912,905,-609,494
2644.223,1.732313,-11.13304,2.576161,-1.11091,0.7723167,0.165116,-0.556068,923,-644,493
2644.227,1.736219,-11.39161,2.839523,-1.182736,0.8255799,0.1427454,-0.4974785,930,-647,486
2644.23,1.740125,-11.48259,3.05979,-1.321599,0.8713863,0.08948221,-0.4601942,900,-594,512
2644.234,1.744031,-11.48738,3.20823,-1.728614,0.9012137,0.02663161,-0.4282363,910,-623,518
2644.238,1.747938,-11.55921,3.533842,-1.939303,0.9097358,-0.01278317,-0.40267,890,-632,509
2644.242,1.751844,-11.71243,3.888183,-1.714248,0.8767126,-0.03089267,-0.3771036,932,-595,503
2644.246,1.75575,-11.86566,4.256891,-1.312023,0.8202536,-0.04154531,-0.3611246,945,-661,506
2644.25,1.759656,-11.91834,4.577714,-1.077391,0.7488809,-0.0628506,-0.3462109,888,-660,485
2644.254,1.763563,-11.65019,4.807557,-1.077391,0.6753777,-0.08841695,-0.334493,908,-635,507
2644.258,1.767469,-11.46344,4.874595,-1.082179,0.5805691,-0.1161138,-0.3195793,907,-635,493
2644.262,1.771375,-11.3533,4.946421,-1.010353,0.519849,-0.1193096,-0.3014698,923,-663,467
2644.266,1.775281,-11.32457,4.960786,-0.7469909,0.46339,-0.1161138,-0.2812298,903,-631,497
2644.27,1.779188,-11.38682,4.845864,-0.4692635,0.4016047,-0.1278317,-0.2556635,882,-611,512
2644.273,1.783094,-11.39161,4.774038,-0.3543418,0.3526025,-0.1576591,-0.2205097,944,-631,497
2644.277,1.787,-11.45865,4.606444,-0.4692635,0.3249057,-0.1938781,-0.1885518,912,-618,480
2644.281,1.790906,-11.48738,4.572925,-0.5554548,0.3089267,-0.2322276,-0.1470065,878,-622,462
2644.285,1.794813,-11.68849,4.577714,-0.5315128,0.298274,-0.273773,-0.1001349,896,-634,536
2644.289,1.798719,-11.94707,4.64954,-0.3878607,0.2897519,-0.3195793,-0.02663161,901,-623,525
2644.293,1.802625,-12.28225,4.783615,-0.1675941,0.278034,-0.3387541,0.03834952,875,-652,476
2644.297,1.806531,-12.66054,4.76925,-0.09576807,0.2620551,-0.3472762,0.1118528,912,-667,470
2644.301,1.810438,-12.96221,4.764461,-0.04788403,0.2450108,-0.3611246,0.2002697,939,-599,496
2644.305,1.814344,-13.10586,4.625598,-0.1005565,0.2364887,-0.4111921,0.3238404,914,-638,479
2644.309,1.81825,-13.10586,4.43885,-0.1675941,0.2450108,-0.4729774,0.4175837,922,-638,505
2644.312,1.822156,-13.02925,4.237737,0.06224924,0.2588593,-0.5187838,0.5060006,913,-641,511
2644.316,1.826063,-12.89996,3.955221,0.6512229,0.278034,-0.5581986,0.5858954,926,-651,516
2644.32,1.829969,-12.86165,3.845088,1.086968,0.3249057,-0.6040049,0.6902914,939,-629,463
2644.324,1.833875,-12.80898,3.725378,1.690306,0.3781689,-0.6391587,0.7616641,908,-659,499
2644.328,1.837781,-12.80419,3.663129,2.303222,0.44315,-0.6657903,0.8362326,895,-638,479
2644.332,1.841688,-12.83771,3.663129,3.102885,0.5187838,-0.7052051,0.9054748,926,-653,478
2644.336,1.845594,-12.77067,3.854665,3.648763,0.6306365,-0.7744472,0.9885654,944,-623,467
2644.34,1.8495,-12.55519,4.031836,3.936068,0.7137272,-0.8468852,1.053547,917,-639,499
2644.344,1.853406,-12.28704,4.395754,4.050989,0.8010789,-0.9331716,1.116397,950,-601,477
2644.348,1.857313,-11.72201,4.79798,3.639187,0.8990832,-1.031176,1.180313,902,-634,514
2644.352,1.861219,-11.14261,4.898537,2.576161,1.026915,-1.185639,1.26873,895,-649,459
2644.355,1.865125,-10.6542,4.802769,1.675941,1.090831,-1.290035,1.331581,904,-648,486
2644.359,1.869031,-10.16578,4.644751,1.192312,1.096157,-1.325189,1.386974,894,-639,489
2644.363,1.872938,-10.08438,4.280833,0.8810662,1.020523,-1.293231,1.423193,881,-692,473
2644.367,1.876844,-10.11311,3.864241,0.8283938,0.7882957,-1.185639,1.465804,870,-621,484
2644.371,1.88075,-10.19451,3.39019,1.082179,0.5528722,-1.082309,1.516937,926,-651,514
2644.375,1.884656,-10.60152,2.892196,1.383849,0.3195793,-1.009871,1.577657,933,-641,460
2644.379,1.888563,-10.83616,1.958457,1.374272,0.1097222,-1.002414,1.647964,855,-652,466
2644.383,1.892469,-11.04685,1.23062,1.134852,-0.1075917,-1.034372,1.75236,871,-613,507
2644.387,1.896375,-11.30542,0.593762,0.7086837,-0.1970739,-1.065264,1.830124,884,-605,541
2644.391,1.900281,-11.73159,-0.07661445,0.1244985,-0.2279666,-1.091896,1.91215,930,-610,485
2644.395,1.904188,-12.20564,-0.842759,-0.1819593,-0.2077266,-1.10681,1.992044,915,-653,473
2644.398,1.908094,-12.48337,-1.407791,-0.3926491,-0.08948221,-1.114267,2.095375,859,-653,492
2644.402,1.912,-12.81377,-1.881843,-0.4453215,0.05645902,-1.089766,2.172074,895,-640,479
2644.406,1.915906,-13.18247,-2.336741,-0.248997,0.2450108,-1.036502,2.245577,889,-634,497
2644.41,1.919813,-13.41711,-2.734178,-0.04309563,0.495348,-0.9267801,2.318015,872,-613,466
2644.414,1.923719,-13.76666,-2.710236,0.2394202,0.6519418,-0.8351673,2.349973,889,-593,450
2644.418,1.927625,-14.09227,-2.523489,0.4979939,0.7637946,-0.7456851,2.367018,915,-661,473
2644.422,1.931531,-14.56153,-1.886631,0.6224924,0.809601,-0.6657903,2.368083,886,-622,510
2644.426,1.935438,-14.68124,-1.23062,0.6512229,0.7680557,-0.5752428,2.336125,921,-609,467
2644.43,1.939344,-14.56632,-0.5650316,0.5267244,0.6668555,-0.5177185,2.290319,877,-645,503
2644.434,1.94325,-14.36042,0.1101333,0.3591302,0.5177185,-0.4846953,2.227468,868,-629,512
2644.438,1.947156,-13.9582,0.8283938,-0.03830723,0.334493,-0.4697816,2.158226,883,-620,471
2644.441,1.951063,-13.5416,1.201889,-0.3830723,0.07456851,-0.4516721,2.075135,870,-611,475
2644.445,1.954969,-13.36922,1.565808,-0.3878607,-0.1097222,-0.4399542,2.025068,874,-702,452
2644.449,1.958875,-13.19205,1.637634,-0.344765,-0.2812298,-0.4197142,1.988849,901,-648,499
2644.453,1.962781,-12.95263,1.561019,-0.2202666,-0.4388889,-0.3962784,1.967543,870,-616,468
2644.457,1.966688,-12.80898,1.374272,-0.08619126,-0.6263755,-0.3824299,1.951564,904,-634,482
2644.461,1.970594,-12.718,1.235408,-0.1580173,-0.7552725,-0.3653857,1.946238,868,-648,464
2644.465,1.9745,-12.60308,0.9816227,-0.1197101,-0.8617989,-0.3408846,1.948369,889,-658,490
2644.469,1.978406,-12.44027,0.6943185,0.06224924,-0.9523464,-0.309992,1.968609,862,-669,460
2644.473,1.982313,-12.38281,0.5075708,0.2106897,-1.057808,-0.2844256,1.985653,852,-635,503
2644.477,1.986219,-12.43548,0.4405331,0.3830723,-1.119593,-0.2748382,1.992044,859,-686,523
2644.48,1.990125,-12.45464,0.3112462,0.5267244,-1.171791,-0.2727077,1.994175,853,-652,492
2644.484,1.994031,-12.39239,0.1675941,0.7422025,-1.202684,-0.2812298,1.99524,881,-630,467
2644.488,1.997938,-12.21043,0.1532289,0.7900865,-1.22825,-0.2908172,1.994175,853,-641,460
2644.492,2.001844,-12.08593,0.07661445,0.7805097,-1.236772,-0.3025351,1.992044,864,-674,466
2644.496,2.00575,-11.92312,0.1005565,0.7517793,-1.245294,-0.3206446,1.992044,898,-618,461
2644.5,2.009656,-11.68849,0.004788403,0.641646,-1.252751,-0.3323625,1.99524,854,-669,496
2644.504,2.013563,-11.59272,-0.09097966,0.6991069,-1.25062,-0.3472762,2.001632,821,-620,503
2644.508,2.017469,-11.31979,-0.2106897,0.6655881,-1.245294,-0.3568636,2.000567,851,-635,450
2644.512,2.021375,-11.15219,-0.2633622,0.641646,-1.237837,-0.3643204,2.000567,883,-660,441
2644.516,2.025281,-10.96066,-0.3878607,0.6368576,-1.226119,-0.370712,1.997371,831,-650,477
2644.52,2.029188,-10.7787,-0.5841852,0.6512229,-1.20801,-0.40267,1.99311,853,-664,507
2644.523,2.033094,-10.63983,-0.6895301,0.6703765,-1.193096,-0.4165184,1.984588,846,-641,466
2644.527,2.037,-10.45308,-0.8810662,0.6943185,-1.172856,-0.4282363,1.981392,827,-659,460
2644.531,2.040906,-10.26634,-1.158794,0.6991069,-1.14729,-0.4452805,1.973935,860,-644,481
2644.535,2.044813,-10.1179,-1.297657,0.7565677,-1.113201,-0.46339,1.964348,869,-651,464
2644.539,2.048719,-9.892841,-1.489193,0.8283938,-1.087635,-0.4719121,1.949434,890,-669,493
2644.543,2.052625,-9.758766,-1.661576,0.794875,-1.06633,-0.4857606,1.93452,858,-656,446
2644.547,2.056531,-9.59596,-1.728614,0.8810662,-1.045024,-0.5038701,1.922802,856,-643,515
2644.551,2.060438,-9.433155,-1.786074,0.9241618,-1.030111,-0.535828,1.906823,822,-613,460
2644.555,2.064344,-9.284714,-1.805228,0.842759,-1.016262,-0.5656554,1.897236,836,-647,466
2644.559,2.06825,-9.11712,-1.70946,0.7613561,-1.012001,-0.5933523,1.883388,850,-676,431
2644.562,2.072156,-8.901642,-1.604115,0.7517793,-1.015197,-0.6103965,1.867409,860,-642,465
2644.566,2.076063,-8.78672,-1.551443,0.6224924,-1.034372,-0.6295713,1.838646,841,-631,506
2644.57,2.079969,-8.571242,-1.359907,0.5985504,-1.056742,-0.6370281,1.812015,869,-625,503
2644.574,2.083875,-8.446743,-1.225831,0.4548983,-1.085504,-0.6327671,1.781122,822,-637,456
2644.578,2.087781,-8.135497,-1.015142,0.3543418,-1.10894,-0.6221144,1.75236,833,-646,511
2644.582,2.091688,-8.09719,-0.9002198,0.2873042,-1.131311,-0.5933523,1.707619,876,-618,463
2644.586,2.095594,-7.953538,-0.8044518,0.225055,-1.137702,-0.572047,1.676726,870,-668,465
2644.59,2.0995,-7.867347,-0.7230489,0.1675941,-1.139833,-0.5581986,1.639442,875,-629,480
2644.594,2.103406,-7.714118,-0.5889736,0.009576807,-1.137702,-0.5400891,1.602158,852,-661,461
2644.598,2.107313,-7.642292,-0.5410896,-0.07182605,-1.112136,-0.5102617,1.548894,818,-647,467
2644.602,2.111219,-7.546524,-0.593762,-0.1628057,-1.085504,-0.4889564,1.50948,882,-644,504
2644.605,2.115125,-7.398083,-0.5554548,-0.272939,-1.053547,-0.4719121,1.466869,838,-653,463
2644.609,2.119031,-7.273585,-0.6560113,-0.3974375,-1.009871,-0.4559332,1.424259,820,-646,485
2644.613,2.122938,-7.091625,-0.6655881,-0.3878607,-0.9353022,-0.4324974,1.36993,776,-649,477
2644.617,2.126844,-6.947973,-0.7134721,-0.4836287,-0.8671253,-0.4101268,1.330515,886,-668,465
2644.621,2.13075,-6.789956,-0.7613561,-0.5793968,-0.7914915,-0.3930826,1.290035,840,-654,482
2644.625,2.134656,-6.603208,-0.8331822,-0.7517793,-0.7030745,-0.370712,1.251686,870,-623,476
2644.629,2.138563,-6.449979,-0.8475474,-0.818817,-0.5763081,-0.3376888,1.201618,822,-625,476
2644.633,2.142469,-6.368576,-0.9528923,-0.9002198,-0.4825648,-0.3078614,1.159008,838,-628,432
2644.637,2.146375,-6.282385,-0.9720459,-0.890643,-0.3845605,-0.2727077,1.116397,820,-644,453
2644.641,2.150281,-6.167463,-1.125275,-1.058237,-0.2908172,-0.2269013,1.071656,868,-650,459
2644.645,2.154188,-6.14831,-1.225831,-1.211466,-0.1640507,-0.1608549,1.010936,853,-639,441
2644.648,2.158094,-6.066907,-1.388637,-1.278504,-0.06498113,-0.1054612,0.9640643,808,-602,449
2644.652,2.162,-6.033388,-1.570596,-1.412579,0.03728426,-0.05432849,0.9171927,818,-634,461
2644.656,2.165906,-5.93762,-1.910573,-1.580173,0.1438107,0.002130529,0.870321,872,-631,463
2644.66,2.169813,-5.928043,-2.193089,-1.570596,0.2833603,0.0777643,0.7978831,842,-638,496
2644.664,2.173719,-5.90889,-2.451662,-1.551443,0.3792341,0.1374191,0.7392935,842,-653,475
2644.668,2.177625,-5.875371,-2.734178,-1.355118,0.4676511,0.1992044,0.6753777,853,-630,497
2644.672,2.181531,-5.813122,-3.040636,-1.000776,0.5379585,0.2514024,0.6050702,849,-632,470
2644.676,2.185438,-5.899313,-3.241749,-0.7086837,0.5933523,0.3078614,0.5049353,821,-588,459
2644.68,2.189344,-5.875371,-3.332729,-0.3160346,0.6072007,0.3270362,0.4250405,855,-635,486
2644.684,2.19325,-5.865794,-3.342306,-0.06224924,0.6093313,0.3355583,0.3419499,836,-615,463
2644.688,2.197156,-5.784391,-3.222595,0.2394202,0.5965481,0.334493,0.2705772,856,-620,501
2644.691,2.201063,-5.693412,-2.978387,0.3399766,0.5837649,0.3291667,0.1757686,853,-640,501
2644.695,2.204969,-5.60722,-2.691083,0.3734955,0.5826996,0.3281014,0.1161138,821,-624,463
2644.699,2.208875,-5.540183,-2.360683,0.4644751,0.5965481,0.334493,0.06711166,850,-649,491
2644.703,2.212781,-5.506664,-1.94888,0.5123592,0.6178534,0.3536678,0.02556635,816,-614,455
2644.707,2.216688,-5.410896,-1.714248,0.56982,0.6508766,0.386691,-0.01917476,871,-625,464
2644.711,2.220594,-5.396531,-1.331176,0.56982,0.6817692,0.4154531,-0.05113269,830,-640,488
2644.715,2.2245,-5.382165,-0.9576807,0.5315128,0.7105314,0.4474111,-0.0958738,831,-650,500
2644.719,2.228406,-5.463568,-0.3543418,0.5554548,0.737163,0.4921522,-0.144876,839,-647,467
2644.723,2.232313,-5.564125,0.1340753,0.6655881,0.7680557,0.5731123,-0.2269013,817,-647,487
2644.727,2.236219,-5.793968,0.6320692,0.9624691,0.7765778,0.6423545,-0.2993393,807,-662,461
2644.73,2.240125,-6.133945,1.244985,1.216254,0.7616641,0.7020093,-0.3781689,819,-632,487
2644.734,2.244031,-6.349423,1.953669,1.671153,0.7158577,0.7424893,-0.459129,791,-632,483
2644.738,2.247938,-6.584055,2.432509,2.06859,0.5826996,0.7819041,-0.5581986,802,-639,491
2644.742,2.251844,-6.947973,2.796428,2.576161,0.4378237,0.8021441,-0.6274408,821,-644,459
2644.746,2.25575,-7.52737,3.155558,3.055001,0.241815,0.8010789,-0.6966829,866,-647,505
2644.75,2.259656,-7.896077,3.663129,3.543418,0.01065264,0.7765778,-0.7637946,807,-645,489
2644.754,2.263563,-8.322245,3.979163,3.825934,-0.3440804,0.7041398,-0.8564726,814,-651,487
2644.758,2.267469,-8.652645,4.276044,3.730166,-0.6210492,0.6274408,-0.9363674,808,-612,460
2644.762,2.271375,-8.930372,4.582502,3.500323,-0.8884305,0.5486112,-1.018393,862,-636,510
2644.766,2.275281,-9.050082,5.104438,3.438074,-1.125985,0.5081311,-1.098288,833,-602,494
2644.77,2.279188,-9.150639,5.525817,3.548207,-1.380583,0.5060006,-1.203749,813,-659,488
2644.773,2.283094,-9.203311,6.086061,3.854665,-1.523328,0.5305017,-1.26873,836,-639,492
2644.777,2.287,-9.02614,6.698976,3.974375,-1.620267,0.5592638,-1.325189,806,-635,499
2644.781,2.290906,-8.762778,7.699753,3.787627,-1.65329,0.5997439,-1.372061,823,-640,537
2644.785,2.294813,-8.470685,8.494627,3.356671,-1.600027,0.6263755,-1.377387,829,-616,477
2644.789,2.298719,-8.06846,9.490615,3.031059,-1.453021,0.6434197,-1.365669,869,-643,476
2644.793,2.302625,-7.896077,10.45308,2.566584,-1.213336,0.6508766,-1.34756,843,-617,537
2644.797,2.306531,-8.054094,11.15219,2.240973,-0.7765778,0.6956177,-1.313471,793,-645,495
2644.801,2.310438,-8.599972,11.70286,1.666364,-0.3994742,0.7499462,-1.274056,817,-617,491
2644.805,2.314344,-9.725247,11.87524,1.201889,-0.00958738,0.8277105,-1.222924,817,-632,515
2644.809,2.31825,-11.37246,11.92312,1.426944,0.3366236,0.9299759,-1.168595,818,-683,468
2644.812,2.322156,-12.14818,12.11945,2.082955,0.680704,1.072721,-1.100418,845,-676,488
2644.816,2.326063,-12.49294,12.47379,3.145981,0.8362326,1.121723,-1.043959,847,-646,479
2644.82,2.329969,-12.40675,12.98136,4.343082,0.9054748,1.0887,-0.9757822,822,-643,477
2644.824,2.333875,-12.12424,13.89595,5.214571,0.9086706,0.9619338,-0.8990832,757,-650,535
2644.828,2.337781,-11.89918,14.27423,5.640739,0.8607337,0.7020093,-0.7787083,865,-636,456
2644.832,2.341688,-11.6023,14.41788,5.544971,0.8213189,0.5209143,-0.684965,813,-637,471
2644.836,2.345594,-11.50653,14.42267,5.228936,0.7978831,0.3813647,-0.6061355,857,-633,485
2644.84,2.3495,-11.59751,14.05875,5.032612,0.7861652,0.2865561,-0.5496764,826,-611,494
2644.844,2.353406,-11.59272,13.78581,4.67827,0.7052051,0.1800297,-0.4921522,843,-600,513
2644.848,2.357313,-11.55442,13.46978,4.175488,0.5464807,0.108657,-0.4324974,829,-609,459
2644.852,2.361219,-11.3533,13.12501,3.576937,0.2918825,0.06178534,-0.3462109,818,-608,465
2644.855,2.365125,-10.96066,12.72279,2.537854,-0.04048005,0.05326322,-0.2322276,840,-627,472
2644.859,2.369031,-10.82179,12.28704,2.001553,-0.5305017,0.1054612,-0.03195793,825,-652,471
2644.863,2.372938,-10.73081,11.77468,1.651999,-0.8745821,0.1874865,0.1480718,814,-673,490
2644.867,2.376844,-10.63504,11.20965,1.656788,-1.166465,0.2599245,0.3323625,827,-641,490
2644.871,2.38075,-10.53449,10.18972,2.193089,-1.379517,0.3195793,0.5241101,841,-620,516
2644.875,2.384656,-10.4052,9.581595,2.94008,-1.526524,0.3589941,0.7552725,804,-645,492
2644.879,2.388563,-9.935937,9.131485,3.912126,-1.52972,0.3398194,0.8990832,843,-630,509
2644.883,2.392469,-9.078813,9.251195,5.410896,-1.435976,0.2663161,1.016262,847,-658,498
2644.887,2.396375,-7.426814,10.27113,6.426037,-1.25062,0.1352886,1.10681,823,-659,478
2644.891,2.400281,-6.512229,11.15219,5.190629,-0.8596684,-0.09267801,1.171791,826,-592,500
2644.895,2.404188,-6.378153,10.98939,2.126051,-0.4900216,-0.2141182,1.200553,811,-639,479
2644.898,2.408094,-7.541735,9.222465,-1.474828,-0.1065264,-0.1821602,1.229315,807,-631,508
2644.902,2.412,-12.32535,3.873818,-5.856217,0.2311624,0.05432849,1.244229,839,-651,464
2644.906,2.415906,-18.44014,-1.771709,-8.537723,0.3781689,0.6476808,1.133441,855,-621,462
2644.91,2.419813,-24.35861,-5.808333,-8.671798,0.1459412,1.298557,0.8127968,834,-628,490
2644.914,2.423719,-26.21651,-5.358223,-2.183512,-0.3589941,1.97287,0.2641856,853,-625,499
2644.918,2.427625,-22.34748,0.6320692,10.16578,-0.9267801,2.171009,-0.3334278,841,-633,474
2644.922,2.431531,-18.10974,4.563348,11.92791,-1.514806,0.9917612,-0.7797736,833,-657,524
2644.926,2.435438,-14.43704,5.904101,7.240066,-1.710815,-0.3483415,-0.7360977,863,-590,527
2644.93,2.439344,-12.25831,5.477933,2.585738,-1.478587,-1.087635,-0.5241101,871,-663,497
2644.934,2.44325,-12.08593,2.595315,1.134852,-0.7680557,-0.9704559,-0.2599245,857,-606,479
2644.938,2.447156,-12.68927,-0.4357447,1.541866,0.1533981,-0.1704423,0.04367584,864,-640,486
2644.941,2.451063,-13.06755,-2.116474,2.494758,0.2279666,0.3334278,0.1363538,857,-651,483
2644.945,2.454969,-12.81377,-1.699883,3.126827,-0.1789644,0.3675162,0.09480853,871,-625,491
2644.949,2.458875,-9.610325,0.5650316,2.193089,-0.8191884,-0.1565939,0.03408846,878,-605,466
2644.953,2.462781,-5.224148,1.517924,-1.297657,-1.821602,-1.074852,0.1065264,865,-663,539
2644.957,2.466688,-1.762132,1.359907,-6.550536,-2.470348,-1.350755,0.2450108,822,-626,472
2644.961,2.470594,-0.9528923,0.05267244,-10.78827,-2.712163,-1.015197,0.4079963,832,-619,484
2644.965,2.4745,-3.940856,-3.624821,-10.38126,-2.4565,-0.2247708,0.5986786,837,-622,471
2644.969,2.478406,-7.211335,-7.192182,-5.837064,-1.686314,0.8468852,0.8042746,812,-631,488
2644.973,2.482313,-9.323021,-10.67814,-0.7852981,-1.243164,1.194161,0.8127968,856,-604,512
2644.977,2.486219,-9.528923,-13.10586,1.929727,-1.125985,1.02585,0.6753777,865,-594,505
2644.98,2.490125,-7.307103,-13.83849,1.25935,-1.176052,0.5262406,0.459129,822,-630,462
2644.984,2.494031,-5.161899,-13.17769,-0.842759,-1.050351,-0.1565939,0.1725728,863,-646,469
2644.988,2.497938,-3.835511,-12.43548,-3.141193,-0.6689861,-0.3600594,-0.002130529,842,-637,481
2644.992,2.501844,-4.299986,-11.7268,-5.046977,-0.03195793,-0.2364887,-0.1683118,845,-629,472
2644.996,2.50575,-7.800309,-10.88404,-5.386954,0.7456851,0.1235707,-0.3739078,860,-650,463
2645,2.509656,-10.52491,-9.600749,-3.892972,1.63305,0.6924219,-0.7265103,811,-636,485
2645.004,2.513563,-11.9327,-7.28795,-2.451662,1.981392,0.9278453,-1.030111,811,-657,480
2645.008,2.517469,-12.11945,-4.295198,-2.48997,2.092179,0.8330368,-1.323058,871,-644,521
2645.012,2.521375,-11.65976,-0.6033388,-5.286397,2.064482,0.515588,-1.536111,838,-625,527
2645.016,2.525281,-11.09952,1.599327,-6.775591,1.975,0.2247708,-1.635181,843,-671,496
2645.02,2.529188,-10.9415,3.457227,-6.167463,1.950499,0.3291667,-1.606419,861,-616,485
2645.023,2.533094,-11.85609,4.654328,-4.381389,1.93452,0.5677859,-1.541438,820,-667,483
2645.027,2.537,-13.46499,5.09965,-1.877054,1.857821,0.7126619,-1.446629,868,-660,494
2645.031,2.540906,-13.65653,5.018247,-0.5410896,1.591505,0.6870956,-1.28897,846,-593,502
2645.035,2.544813,-13.20163,5.243302,-0.1244985,1.317732,0.592287,-1.186705,829,-625,511
2645.039,2.548719,-12.23437,5.736507,-0.8810662,1.064199,0.499609,-1.112136,863,-635,472
2645.043,2.552625,-11.16656,5.995081,-2.42772,0.8671253,0.4548679,-1.023719,815,-646,512
2645.047,2.556531,-10.56322,5.750872,-2.753332,0.6583334,0.5102617,-0.8831042,878,-619,497
2645.051,2.560438,-10.43393,4.91769,-2.657564,0.5113269,0.608266,-0.8074704,871,-618,502
2645.055,2.564344,-10.43393,3.74932,-2.346318,0.3494067,0.6892261,-0.7659251,822,-636,495
2645.059,2.56825,-10.44351,2.006341,-1.757344,0.1725728,0.7403588,-0.7552725,835,-604,510
2645.062,2.572156,-10.26634,0.8858546,-1.302446,-0.06817692,0.753142,-0.7882957,837,-588,511
2645.066,2.576063,-9.988609,0.06703765,-1.154005,-0.2354234,0.7222493,-0.8426242,860,-642,513
2645.07,2.579969,-9.725247,-0.4692635,-1.369483,-0.3739078,0.6732471,-0.9044095,864,-592,506
2645.074,2.583875,-9.375694,-1.115698,-1.886631,-0.4761732,0.6402239,-0.9725864,863,-640,478
2645.078,2.587781,-9.342175,-1.465251,-2.269703,-0.5336975,0.6263755,-1.067395,843,-611,520
2645.082,2.591688,-9.428366,-1.833958,-2.442086,-0.5081311,0.6370281,-1.134507,841,-597,514
2645.086,2.595594,-9.500192,-2.111686,-2.236184,-0.4474111,0.6508766,-1.195227,850,-639,489
2645.09,2.5995,-9.528923,-2.442086,-1.795651,-0.3717773,0.6593987,-1.247425,849,-657,523
2645.094,2.603406,-9.581595,-2.5187,-1.513135,-0.2652508,0.6562029,-1.307079,865,-611,496
2645.098,2.607313,-9.524134,-2.657564,-1.244985,-0.1757686,0.6519418,-1.337972,871,-615,482
2645.102,2.611219,-9.481039,-2.724601,-1.101333,-0.07030745,0.648746,-1.355016,877,-626,497
2645.105,2.615125,-9.433155,-2.695871,-0.9433155,0.05432849,0.6519418,-1.363538,814,-610,498
2645.109,2.619031,-9.361328,-2.652775,-0.9576807,0.2396845,0.6530071,-1.370995,867,-638,503
2645.113,2.622938,-9.361328,-2.571373,-0.9289502,0.3760383,0.6412892,-1.3678,851,-663,467
2645.117,2.626844,-9.284714,-2.394202,-0.8331822,0.4942827,0.6199839,-1.365669,855,-655,477
2645.121,2.63075,-9.323021,-2.121263,-0.6655881,0.5912218,0.5986786,-1.356082,846,-636,462
2645.125,2.634656,-9.308656,-1.910573,-0.3782839,0.6902914,0.5795039,-1.351821,847,-658,509
2645.129,2.638563,-9.404424,-1.651999,-0.04788403,0.7488809,0.5752428,-1.342233,906,-587,487
2645.133,2.642469,-9.504981,-1.455675,0.1484405,0.8053399,0.5603291,-1.332646,839,-628,510
2645.137,2.646375,-9.533711,-1.187524,0.1484405,0.8777779,0.5368933,-1.320928,869,-640,504
2645.141,2.650281,-9.457097,-1.01993,0.09097966,0.9310411,0.4878911,-1.308145,865,-652,505
2645.145,2.654188,-9.289502,-0.890643,0.1149217,0.9896307,0.4442153,-1.300688,876,-631,492
2645.148,2.658094,-8.939949,-0.7900865,-0.03351882,1.054612,0.3984089,-1.28897,887,-628,508
2645.152,2.662,-8.734048,-0.8140286,-0.2106897,1.141963,0.3515373,-1.267665,855,-628,517
2645.156,2.665906,-8.614338,-0.7900865,-0.4644751,1.205879,0.3334278,-1.25062,851,-624,514
2645.16,2.669813,-8.57603,-0.8475474,-0.6847417,1.265534,0.3355583,-1.23038,886,-628,533
2645.164,2.673719,-8.628703,-0.866701,-0.9050082,1.320928,0.3483415,-1.213336,876,-630,501
2645.168,2.677625,-8.700529,-0.8140286,-0.9289502,1.405084,0.3685815,-1.193096,879,-620,490
2645.172,2.681531,-8.75799,-0.7230489,-0.842759,1.480718,0.3771036,-1.183509,890,-657,471
2645.176,2.685438,-8.686164,-0.521936,-0.8379706,1.57233,0.3771036,-1.176052,881,-635,493
2645.18,2.689344,-8.662222,-0.1436521,-0.9241618,1.672465,0.366451,-1.163269,848,-617,512
2645.184,2.69325,-8.633491,0.04788403,-1.024718,1.81095,0.3579289,-1.146225,882,-637,532
2645.188,2.697156,-8.671798,0.2920926,-1.13964,1.900432,0.3568636,-1.132376,878,-667,494
2645.191,2.701063,-8.657433,0.5650316,-1.063026,1.963282,0.3557983,-1.125985,834,-611,525
2645.195,2.704969,-8.633491,0.9337386,-1.053449,1.989914,0.3376888,-1.123854,899,-624,488
2645.199,2.708875,-8.590396,1.254562,-1.163582,1.985653,0.3014698,-1.112136,840,-614,525
2645.203,2.712781,-8.66701,1.546654,-1.283292,1.962217,0.2833603,-1.099353,843,-607,478
2645.207,2.716688,-8.614338,1.905785,-1.302446,1.941977,0.273773,-1.087635,866,-600,473
2645.211,2.720594,-8.657433,2.274492,-1.063026,1.921737,0.2833603,-1.079113,859,-618,515
2645.215,2.7245,-8.801085,2.504335,-0.7565677,1.854625,0.3217099,-1.06846,868,-649,492
2645.219,2.728406,-8.887277,2.825158,-0.593762,1.774731,0.3419499,-1.063134,878,-644,491
2645.223,2.732313,-9.002198,3.117251,-0.6224924,1.657551,0.350472,-1.054612,861,-605,516
2645.227,2.736219,-9.112332,3.428497,-0.8140286,1.526524,0.3398194,-1.043959,885,-604,515
2645.23,2.740125,-9.169792,3.687071,-0.9576807,1.355016,0.3110572,-1.031176,866,-622,496
2645.234,2.744031,-9.212888,3.77805,-1.01993,1.23038,0.2769688,-1.02798,856,-650,513
2645.238,2.747938,-9.121908,3.782839,-1.11091,1.103614,0.2524677,-1.026915,876,-612,486
2645.242,2.751844,-9.059659,3.596091,-1.225831,0.9725864,0.2439456,-1.02798,893,-640,516
2645.246,2.75575,-9.016563,3.39019,-1.292869,0.7850999,0.2482066,-1.02798,848,-601,481
2645.25,2.759656,-8.954314,3.093309,-1.244985,0.6359629,0.2641856,-1.029045,888,-615,496
2645.254,2.763563,-8.973468,2.628833,-1.16837,0.4857606,0.2727077,-1.035437,910,-601,489
2645.258,2.767469,-8.882488,2.173935,-1.053449,0.330232,0.2759035,-1.040763,846,-581,520
2645.262,2.771375,-8.863335,1.781286,-1.010353,0.1374191,0.2759035,-1.053547,900,-640,544
2645.266,2.775281,-8.762778,1.551443,-0.9193734,0.008522115,0.278034,-1.067395,859,-614,509
2645.27,2.779188,-8.767566,1.335965,-0.794875,-0.1033307,0.2844256,-1.081243,895,-625,476
2645.273,2.783094,-8.781932,1.173159,-0.6512229,-0.1938781,0.294013,-1.092961,853,-662,466
2645.277,2.787,-8.920795,1.154005,-0.3734955,-0.2929477,0.3078614,-1.104679,901,-598,485
2645.281,2.790906,-8.920795,1.11091,-0.2633622,-0.3557983,0.3025351,-1.112136,900,-641,519
2645.285,2.794813,-8.805874,1.134852,-0.2537854,-0.4154531,0.294013,-1.117462,874,-628,532
2645.289,2.798719,-8.753201,1.292869,-0.03351882,-0.459129,0.2854909,-1.120658,890,-590,503
2645.293,2.802625,-8.69574,1.316811,0.02394202,-0.499609,0.2844256,-1.122789,898,-598,509
2645.297,2.806531,-8.499416,1.422156,0.04788403,-0.5273059,0.2918825,-1.119593,901,-619,493
2645.301,2.810438,-8.528146,1.436521,0.05267244,-0.5539375,0.3046656,-1.116397,893,-645,506
2645.305,2.814344,-8.590396,1.312023,0.1915361,-0.5763081,0.3291667,-1.10681,882,-598,544
2645.309,2.81825,-8.619126,1.221043,0.3974375,-0.6114618,0.3611246,-1.092961,882,-617,506
2645.312,2.822156,-8.69574,1.16837,0.4932055,-0.6317018,0.3824299,-1.081243,887,-639,497
2645.316,2.826063,-8.78672,0.9672575,0.5506664,-0.6391587,0.4101268,-1.063134,882,-611,516
2645.32,2.829969,-9.045294,0.8283938,0.6272808,-0.6359629,0.4111921,-1.041829,876,-612,503
2645.324,2.833875,-9.150639,0.617704,0.7086837,-0.5997439,0.4090615,-1.010936,864,-635,500
2645.328,2.837781,-9.102755,0.4836287,0.7565677,-0.5603291,0.3962784,-0.9864349,862,-594,502
2645.332,2.841688,-9.093178,0.3112462,0.6368576,-0.5113269,0.3834952,-0.9651296,890,-619,501
2645.336,2.845594,-9.074024,-0.08619126,0.6703765,-0.4623248,0.3717773,-0.9459548,896,-614,520
2645.34,2.8495,-9.069236,-0.272939,0.5602432,-0.3962784,0.3898868,-0.9193232,856,-597,495
2645.344,2.853406,-9.222465,-0.3926491,0.2106897,-0.3419499,0.406931,-0.9054748,866,-625,492
2645.348,2.857313,-9.370905,-0.4788403,0,-0.2961435,0.4239752,-0.8873653,886,-603,484
2645.352,2.861219,-9.581595,-0.4357447,-0.3256114,-0.2588593,0.4239752,-0.8767126,850,-613,504
2645.355,2.865125,-9.643844,-0.4118027,-0.56982,-0.201335,0.4005394,-0.8628642,872,-594,490
2645.359,2.869031,-9.56723,-0.4213795,-0.8331822,-0.1608549,0.3749731,-0.8564726,874,-626,478
2645.363,2.872938,-9.605537,-0.4692635,-1.067814,-0.1246359,0.3494067,-0.84582,857,-610,518
2645.367,2.876844,-9.662998,-0.521936,-1.225831,-0.08735168,0.334493,-0.8372978,892,-666,502
2645.371,2.88075,-9.801862,-0.5171476,-1.240196,-0.04154531,0.3323625,-0.8245147,893,-638,471
2645.375,2.884656,-9.911995,-0.5171476,-1.149217,-0.00958738,0.3270362,-0.8149273,860,-618,498
2645.379,2.888563,-10.02692,-0.4022259,-0.9241618,0.03089267,0.3153183,-0.8064052,896,-624,480
2645.383,2.892469,-10.15142,-0.248997,-0.617704,0.07137272,0.2961435,-0.8000136,872,-554,504
2645.387,2.896375,-10.09874,-0.06703765,-0.4165911,0.1342233,0.2631203,-0.7904262,889,-614,502
2645.391,2.900281,-10.05565,0.1819593,-0.2202666,0.1896171,0.237554,-0.7840346,916,-608,497
2645.395,2.904188,-9.979033,0.3543418,-0.1053449,0.2524677,0.2247708,-0.7765778,885,-613,522
2645.398,2.908094,-9.907206,0.5027823,-0.07661445,0.3227751,0.2183792,-0.7627293,866,-582,492
2645.402,2.912,-9.907206,0.56982,0.07182605,0.4356932,0.2183792,-0.7435546,867,-605,475
2645.406,2.915906,-10.00776,0.5746084,0.05267244,0.5273059,0.2226403,-0.7243798,907,-597,474
2645.41,2.919813,-10.07001,0.521936,-0.009576807,0.6135923,0.2173139,-0.7052051,859,-606,507
2645.414,2.923719,-10.22324,0.5506664,-0.02873042,0.6902914,0.2066613,-0.684965,866,-633,501
2645.418,2.927625,-10.38126,0.6320692,0.1580173,0.7904262,0.2162487,-0.660464,898,-605,520
2645.422,2.931531,-10.45308,0.9672575,0,0.8564726,0.2279666,-0.6455502,887,-635,505
2645.426,2.935438,-10.66856,1.383849,-0.6272808,0.9139969,0.2119876,-0.6263755,867,-636,509
2645.43,2.939344,-10.66377,2.111686,-1.283292,0.9853696,0.1768339,-0.6093313,881,-596,492
2645.434,2.94325,-10.51055,2.614468,-1.632846,1.094027,0.1342233,-0.5869607,869,-628,518
2645.438,2.947156,-10.32859,3.083732,-1.881843,1.166465,0.09374327,-0.5741775,890,-608,476
2645.441,2.951063,-10.2807,3.342306,-2.102109,1.213336,0.05113269,-0.5613944,884,-607,487
2645.445,2.954969,-10.1993,3.643975,-2.087744,1.232511,0.01704423,-0.5400891,910,-613,522
2645.449,2.958875,-10.24239,3.835511,-2.011129,1.215467,-0.00958738,-0.5219796,885,-584,508
2645.453,2.962781,-10.28549,3.979163,-1.958457,1.166465,-0.02024002,-0.5028048,895,-612,542
2645.457,2.966688,-10.26634,4.151546,-1.848324,1.096157,-0.01917476,-0.4825648,907,-637,505
2645.461,2.970594,-10.33337,4.458003,-1.628057,1.017328,-0.0181095,-0.4644553,929,-603,491
2645.465,2.9745,-10.29028,4.539406,-1.450886,0.9267801,-0.04048005,-0.4420847,858,-592,494
2645.469,2.978406,-10.26634,4.596867,-1.25935,0.8596684,-0.05965481,-0.4175837,889,-597,541
2645.473,2.982313,-10.2807,4.620809,-1.067814,0.8010789,-0.07243798,-0.3941478,883,-560,540
2645.477,2.986219,-10.38126,4.55856,-0.6224924,0.7392935,-0.08309063,-0.366451,909,-597,503
2645.48,2.990125,-10.47703,4.539406,-0.3687071,0.6508766,-0.08841695,-0.3206446,850,-600,501
2645.484,2.994031,-10.57758,4.52983,-0.1197101,0.5741775,-0.08522115,-0.2801645,906,-593,516
2645.488,2.997938,-10.60152,4.572925,0.08140286,0.495348,-0.08841695,-0.237554,898,-631,509
2645.492,3.001844,-10.6111,4.592079,0.296881,0.4282363,-0.1001349,-0.1928129,886,-605,488
2645.496,3.00575,-10.48181,4.611232,0.4740519,0.3568636,-0.1342233,-0.1384844,874,-630,501
2645.5,3.009656,-10.31901,4.635174,0.5075708,0.3036004,-0.1502023,-0.09374327,919,-601,510
2645.504,3.013563,-10.07959,4.754884,0.3591302,0.2556635,-0.1555286,-0.04367584,924,-584,521
2645.508,3.017469,-10.04128,4.927267,0.02873042,0.2087918,-0.1661813,0.005326322,910,-609,497
2645.512,3.021375,-10.09874,5.15711,-0.3734955,0.185356,-0.1906823,0.07137272,875,-601,472
2645.516,3.025281,-10.25197,5.382165,-0.8954314,0.1747034,-0.2109224,0.1278317,919,-604,512
2645.52,3.029188,-10.71645,5.693412,-1.335965,0.1725728,-0.2300971,0.1906823,887,-616,489
2645.523,3.033094,-11.36288,5.875371,-1.158794,0.1747034,-0.2748382,0.2844256,932,-606,499
2645.527,3.037,-12.25831,5.985504,-0.7038953,0.1757686,-0.3004046,0.3728426,896,-609,489
2645.531,3.040906,-13.17769,6.124368,-0.3495534,0.1597897,-0.3174488,0.4740427,855,-622,461
2645.535,3.044813,-13.9965,5.999869,0.1005565,0.1246359,-0.3419499,0.5837649,883,-647,517
2645.539,3.048719,-14.21198,5.985504,0.4453215,0.05965481,-0.427171,0.7435546,917,-628,488
2645.543,3.052625,-14.02044,6.004658,0.9576807,0.0181095,-0.5251754,0.8522115,870,-615,456
2645.547,3.056531,-13.7092,6.090849,1.61848,-0.01384844,-0.6317018,0.9416938,912,-608,504
2645.551,3.060438,-13.41711,6.344634,2.60968,-0.04154531,-0.6892261,1.018393,906,-571,525
2645.555,3.064344,-13.65174,6.483498,3.260903,-0.06498113,-0.7179882,1.112136,866,-602,503
2645.559,3.06825,-14.13537,6.660669,4.050989,-0.05858954,-0.7520767,1.182444,911,-604,493
2645.562,3.072156,-14.70519,6.842628,4.91769,-0.05752428,-0.8032094,1.262338,925,-585,489
2645.566,3.076063,-14.85842,6.924031,5.181052,-0.05752428,-0.9289106,1.340103,906,-631,512
2645.57,3.079969,-14.2024,6.766014,4.309563,-0.03089267,-1.213336,1.440238,899,-620,495
2645.574,3.083875,-13.01488,6.29675,3.20823,0.02663161,-1.425324,1.505219,891,-587,511
2645.578,3.087781,-11.91355,5.45878,2.011129,0.08735168,-1.565939,1.54996,878,-610,501
2645.582,3.091688,-10.60631,3.773262,1.144428,0.08841695,-1.603223,1.575526,876,-641,482
2645.586,3.095594,-10.07959,2.231396,1.436521,-0.05113269,-1.494566,1.593636,886,-605,541
2645.59,3.0995,-9.89763,1.053449,2.140416,-0.2492719,-1.364604,1.604288,890,-608,506
2645.594,3.103406,-9.907206,-0.009576807,2.42772,-0.479369,-1.244229,1.621332,883,-582,537
2645.598,3.107313,-10.16099,-1.206678,1.719037,-0.6966829,-1.196292,1.655421,860,-619,472
2645.602,3.111219,-10.37168,-1.900996,0.2873042,-0.8756474,-1.177117,1.733185,882,-602,519
2645.605,3.115125,-10.83616,-2.614468,-0.842759,-0.8926916,-1.178182,1.798166,884,-591,482
2645.609,3.119031,-11.46823,-3.265691,-1.47004,-0.8010789,-1.201618,1.847169,924,-594,512
2645.613,3.122938,-12.74194,-4.175488,-1.953669,-0.6103965,-1.218663,1.885518,853,-622,500
2645.617,3.126844,-13.72835,-4.821922,-1.848324,-0.2119876,-1.225054,1.957956,886,-623,468
2645.621,3.13075,-14.59505,-5.434838,-1.441309,0.1384844,-1.193096,2.029329,871,-614,480
2645.625,3.134656,-15.46175,-5.851429,-0.9097966,0.495348,-1.154747,2.095375,871,-583,494
2645.629,3.138563,-16.17044,-5.980716,0.03351882,0.8415589,-1.14729,2.143312,886,-630,485
2645.633,3.142469,-16.28057,-5.702988,0.4788403,1.242098,-1.146225,2.179531,875,-619,502
2645.637,3.146375,-16.12734,-4.946421,0.1484405,1.473261,-1.138768,2.186988,901,-596,482
2645.641,3.150281,-15.6916,-4.13718,-0.4548983,1.626659,-1.095092,2.194445,857,-633,459
2645.645,3.154188,-15.21276,-2.944868,-1.101333,1.680987,-0.9938917,2.202967,867,-594,487
2645.648,3.158094,-15.01164,-2.078167,-1.795651,1.628789,-0.8341021,2.185923,901,-649,479
2645.652,3.162,-14.92066,-1.23062,-2.403778,1.53185,-0.7467504,2.161422,839,-627,482
2645.656,3.165906,-14.82011,-0.4501099,-2.839523,1.412541,-0.6764429,2.128398,874,-624,532
2645.66,3.169813,-14.69561,0.5410896,-2.652775,1.278317,-0.6306365,2.095375,844,-629,480
2645.664,3.173719,-14.45619,1.177947,-2.288857,1.076982,-0.5954828,2.049569,862,-619,486
2645.668,3.177625,-14.15452,1.8579,-1.723825,0.9182579,-0.588026,2.017611,890,-618,503
2645.672,3.181531,-13.64216,2.245761,-1.197101,0.7755125,-0.5933523,1.992044,852,-594,505
2645.676,3.185438,-12.967,2.671929,-0.6847417,0.6434197,-0.5848302,1.979261,834,-616,511
2645.68,3.189344,-12.49294,2.72939,-0.4644751,0.5028048,-0.5400891,1.984588,864,-607,513
2645.684,3.19325,-12.14818,2.724601,-0.1580173,0.4239752,-0.4868258,1.998436,865,-608,471
2645.688,3.197156,-11.99495,2.657564,0.1436521,0.3462109,-0.4048005,2.009089,889,-606,489
2645.691,3.201063,-11.99016,2.537854,0.641646,0.2727077,-0.3131877,2.019741,860,-628,496
2645.695,3.204969,-12.0141,2.379836,0.9193734,0.1640507,-0.2332929,2.029329,864,-633,496
2645.699,3.208875,-12.10987,2.264915,1.082179,0.05752428,-0.1789644,2.041047,851,-628,481
2645.703,3.212781,-12.21043,2.145205,1.163582,-0.0628506,-0.1459412,2.046373,883,-594,457
2645.707,3.216688,-12.42112,2.082955,1.187524,-0.1885518,-0.1139833,2.052765,864,-612,476
2645.711,3.220594,-12.55041,2.006341,1.235408,-0.3717773,-0.05858954,2.059156,852,-599,487
2645.715,3.2245,-12.56477,1.881843,1.173159,-0.5102617,-0.04900216,2.064482,823,-595,479
2645.719,3.228406,-12.64138,1.987187,1.010353,-0.6519418,-0.05006743,2.068744,804,-597,527
2645.723,3.232313,-12.50731,2.030283,0.7086837,-0.8010789,-0.0660464,2.068744,878,-647,479
2645.727,3.236219,-12.34929,2.102109,0.4884171,-1.000283,-0.112918,2.065548,915,-628,509
2645.73,3.240125,-12.14339,2.035071,0.2777274,-1.140898,-0.149137,2.062352,825,-621,471
2645.734,3.244031,-11.86088,2.035071,0.2298434,-1.272991,-0.1970739,2.057026,854,-607,485
2645.738,3.247938,-11.49217,1.953669,0.1771709,-1.393366,-0.2428803,2.047438,886,-625,470
2645.742,3.251844,-11.08515,1.70946,0.1436521,-1.544633,-0.3036004,2.030394,864,-607,494
2645.746,3.25575,-10.7787,1.388637,0.06703765,-1.645834,-0.3589941,2.014415,852,-645,481
2645.75,3.259656,-10.50097,0.9864111,0,-1.742773,-0.3792341,2.003762,848,-626,527
2645.754,3.263563,-10.19451,0.3878607,0.01915361,-1.820537,-0.3984089,1.989914,857,-635,504
2645.758,3.267469,-10.05086,-0.1484405,0.1532289,-1.897236,-0.4111921,1.973935,835,-619,502
2645.762,3.271375,-9.859322,-0.6272808,0.248997,-1.927063,-0.4101268,1.966478,854,-636,483
2645.766,3.275281,-9.758766,-1.144428,0.4070143,-1.93239,-0.4335626,1.953695,835,-593,506
2645.77,3.279188,-9.528923,-1.747767,0.5602432,-1.929194,-0.4538026,1.944108,858,-624,512
2645.773,3.283094,-9.212888,-2.035071,0.6751649,-1.908954,-0.4985438,1.93239,842,-623,478
2645.777,3.287,-9.02614,-2.355894,0.6464344,-1.888714,-0.5379585,1.925998,892,-626,516
2645.781,3.290906,-8.714894,-2.60968,0.6320692,-1.869539,-0.5763081,1.91428,836,-607,474
2645.785,3.294813,-8.2169,-2.801216,0.5746084,-1.849299,-0.6167881,1.900432,836,-595,480
2645.789,3.298719,-7.920019,-2.930503,0.4788403,-1.829059,-0.644485,1.879126,852,-612,463
2645.793,3.302625,-7.690176,-2.896984,0.296881,-1.824798,-0.660464,1.865278,843,-623,486
2645.797,3.306531,-7.398083,-2.8491,0.2011129,-1.820537,-0.6743124,1.839712,825,-600,488
2645.801,3.310438,-7.139509,-2.753332,0.01436521,-1.812015,-0.6732471,1.808819,856,-581,459
2645.805,3.314344,-6.92882,-2.671929,-0.05267244,-1.793905,-0.6721819,1.763013,862,-618,479
2645.809,3.31825,-6.823475,-2.528277,-0.04309563,-1.777926,-0.6615292,1.725728,833,-606,489
2645.812,3.322156,-6.742072,-2.408567,-0.1532289,-1.754491,-0.6540724,1.680987,862,-593,497
2645.816,3.326063,-6.660669,-2.27928,-0.2633622,-1.727859,-0.6466155,1.629855,847,-596,487
2645.82,3.329969,-6.689399,-2.217031,-0.2825158,-1.694836,-0.6295713,1.555286,829,-621,478
2645.824,3.333875,-6.751649,-2.121263,-0.3303998,-1.67353,-0.6146576,1.495631,857,-580,471
2645.828,3.337781,-6.766014,-1.982399,-0.3830723,-1.65116,-0.5965481,1.429585,820,-617,522
2645.832,3.341688,-6.789956,-1.805228,-0.3256114,-1.631985,-0.5741775,1.358212,828,-605,517
2645.836,3.345594,-6.794744,-1.73819,-0.3256114,-1.604288,-0.5400891,1.261273,785,-612,514
2645.84,3.3495,-6.780379,-1.551443,-0.296881,-1.586179,-0.5251754,1.192031,878,-623,481
2645.844,3.353406,-6.770802,-1.527501,-0.3687071,-1.562743,-0.499609,1.121723,875,-622,449
2645.848,3.357313,-6.694188,-1.460463,-0.5027823,-1.523328,-0.479369,1.056742,857,-614,524
2645.852,3.361219,-6.593631,-1.436521,-0.5171476,-1.433846,-0.4655206,0.9736517,834,-636,503
2645.855,3.365125,-6.430826,-1.450886,-0.6655881,-1.339037,-0.4463458,0.9161274,813,-604,507
2645.859,3.369031,-6.359,-1.561019,-0.9816227,-1.229315,-0.4154531,0.8639295,824,-627,504
2645.863,3.372938,-6.14831,-1.757344,-1.273715,-1.096157,-0.3834952,0.8117315,837,-649,469
2645.867,3.376844,-6.004658,-2.049437,-1.671153,-0.8788432,-0.3270362,0.753142,864,-632,481
2645.871,3.38075,-5.918467,-2.389413,-2.025495,-0.6956177,-0.2567287,0.7105314,841,-650,484
2645.875,3.384656,-5.822698,-2.791639,-2.485181,-0.499609,-0.1821602,0.6721819,822,-552,479
2645.879,3.388563,-5.750872,-3.371036,-2.686294,-0.221575,-0.09161274,0.6210492,852,-603,507
2645.883,3.392469,-5.741296,-3.811569,-2.719813,-0.0181095,-0.01917476,0.5795039,809,-598,458
2645.887,3.396375,-5.72693,-4.232949,-2.724601,0.1747034,0.06391587,0.531567,856,-613,516
2645.891,3.400281,-5.722142,-4.817134,-2.375048,0.3472762,0.1416802,0.4751079,835,-589,482
2645.895,3.404188,-5.707777,-5.195418,-1.977611,0.5326322,0.2119876,0.386691,842,-587,492
2645.898,3.408094,-5.702988,-5.592855,-1.599327,0.6338323,0.237554,0.3153183,813,-613,513
2645.902,3.412,-5.674258,-5.875371,-1.316811,0.7190535,0.2503371,0.2364887,824,-613,493
2645.906,3.415906,-5.449203,-6.038177,-0.9624691,0.8085357,0.2535329,0.1608549,840,-602,452
2645.91,3.419813,-5.286397,-6.014235,-0.8475474,0.9619338,0.2482066,0.0660464,861,-594,478
2645.914,3.423719,-5.27682,-5.894524,-0.6655881,1.098288,0.2450108,0.005326322,856,-621,511
2645.918,3.427625,-5.348647,-5.664681,-0.248997,1.243164,0.2503371,-0.05752428,864,-617,508
2645.922,3.431531,-5.592855,-5.003881,0.1723825,1.393366,0.2620551,-0.1257012,810,-657,481
2645.926,3.435438,-5.832275,-4.443638,0.4118027,1.567004,0.2897519,-0.2109224,863,-599,482
2645.93,3.439344,-6.071695,-3.821146,0.6512229,1.669269,0.3185141,-0.2716424,807,-618,452
2645.934,3.44325,-6.493075,-3.117251,1.01993,1.748099,0.3696468,-0.3376888,862,-619,470
2645.938,3.447156,-7.04853,-2.212242,1.537077,1.794971,0.4143879,-0.4165184,817,-614,511
2645.941,3.451063,-7.383718,-1.49877,1.977611,1.794971,0.4516721,-0.531567,861,-607,496
2645.945,3.454969,-7.608773,-0.6272808,2.494758,1.740642,0.4452805,-0.6231797,814,-575,504
2645.949,3.458875,-7.642292,0.3687071,2.829946,1.63305,0.4005394,-0.7137272,839,-596,532
2645.953,3.462781,-7.49864,1.723825,3.117251,1.475391,0.3334278,-0.7904262,855,-594,478
2645.957,3.466688,-7.264008,2.82037,3.117251,1.178182,0.2311624,-0.8756474,849,-637,470
2645.961,3.470594,-7.043741,3.926491,3.160346,0.9054748,0.1747034,-0.9257148,849,-588,467
2645.965,3.4745,-6.919243,5.080496,3.347094,0.5997439,0.1427454,-0.9779128,860,-634,469
2645.969,3.478406,-6.947973,6.665457,3.543418,0.2631203,0.1320928,-1.034372,822,-596,485
2645.973,3.482313,-7.010222,7.747637,3.687071,-0.221575,0.1310275,-1.116397,826,-615,531
2645.977,3.486219,-7.163451,8.930372,3.62961,-0.5933523,0.1374191,-1.176052,810,-630,522
2645.98,3.490125,-7.129933,9.864111,3.438074,-0.9480853,0.1619202,-1.226119,848,-654,495
2645.984,3.494031,-7.206547,10.8601,3.107674,-1.277252,0.2237055,-1.260208,858,-597,496
2645.988,3.497938,-7.364564,11.44428,3.074155,-1.686314,0.3739078,-1.283644,865,-634,510
2645.992,3.501844,-7.565677,11.96143,3.217807,-1.950499,0.5294364,-1.290035,817,-628,510
2645.996,3.50575,-7.814674,12.47858,3.615245,-2.153965,0.7094661,-1.282578,853,-632,492
2646,3.509656,-8.202535,13.10586,3.816357,-2.297775,0.8681905,-1.264469,843,-634,517
2646.004,3.513563,-8.848969,13.36922,3.758897,-2.3553,1.038633,-1.21014,898,-616,507
2646.008,3.517469,-9.71567,13.37401,3.687071,-2.262622,1.181378,-1.159008,844,-595,463
2646.012,3.521375,-11.0229,13.12501,3.859453,-2.052765,1.356082,-1.105744,862,-633,470
2646.016,3.525281,-13.31176,12.54083,4.812345,-1.720402,1.538242,-1.057808,858,-633,493
2646.02,3.529188,-14.69561,12.26789,5.774814,-1.134507,1.683118,-1.034372,867,-633,485
2646.023,3.533094,-15.29416,12.17691,6.531382,-0.6391587,1.63305,-1.035437,886,-604,530
2646.027,3.537,-15.19839,12.36366,6.924031,-0.1310275,1.40828,-1.018393,856,-633,504
2646.031,3.540906,-14.44661,12.6749,7.058106,0.3526025,1.042894,-0.9640643,852,-646,517
2646.035,3.544813,-13.70441,12.89038,6.703765,0.8532768,0.4420847,-0.8202536,857,-614,504
2646.039,3.548719,-12.96221,12.92869,5.932832,1.100418,0.01917476,-0.680704,853,-599,535
2646.043,3.552625,-12.12903,13.02446,5.042189,1.238903,-0.309992,-0.5464807,839,-662,504
2646.047,3.556531,-10.96066,13.18726,3.653552,1.266599,-0.5049353,-0.4303668,816,-656,498
2646.051,3.560438,-10.20409,13.08671,2.839523,1.128115,-0.5454154,-0.2929477,870,-625,482
2646.055,3.564344,-9.710882,12.75631,2.413355,0.8980179,-0.4356932,-0.185356,841,-599,527
2646.059,3.56825,-9.586383,12.35887,2.264915,0.5816344,-0.2556635,-0.07350325,882,-622,518
2646.062,3.572156,-9.859322,11.61188,2.183512,0.2045308,-0.05752428,0.04048005,854,-603,502
2646.066,3.576063,-10.0748,10.817,1.94888,-0.3249057,0.1747034,0.2066613,820,-631,472
2646.07,3.579969,-10.31901,9.883264,2.044648,-0.6732471,0.3131877,0.334493,820,-629,486
2646.074,3.583875,-10.53449,8.8777,2.111686,-0.9246495,0.4175837,0.4655206,859,-609,527
2646.078,3.587781,-10.69729,7.493851,2.145205,-1.067395,0.4697816,0.5869607,847,-607,488
2646.082,3.591688,-10.50097,6.493075,2.145205,-1.101483,0.4612595,0.7360977,832,-592,521
2646.086,3.595594,-10.07001,5.640739,2.226608,-1.012001,0.406931,0.8479505,857,-604,499
2646.09,3.5995,-9.485827,4.927267,2.394202,-0.8362326,0.3206446,0.9619338,850,-604,515
2646.094,3.603406,-8.662222,4.060566,3.308787,-0.5858954,0.1778992,1.06846,875,-651,545
2646.098,3.607313,-8.374917,3.576937,4.395754,-0.1789644,-0.06072007,1.203749,840,-602,528
2646.102,3.611219,-8.686164,3.423708,6.612785,0.1512675,-0.2269013,1.277252,845,-623,504
2646.105,3.615125,-10.18493,3.41892,7.627926,0.4783037,-0.3696468,1.296427,853,-638,498
2646.109,3.619031,-14.74828,1.838747,-0.5602432,0.7605988,-0.4740427,1.243164,893,-607,506
2646.113,3.622938,-18.67477,-0.6033388,-11.87524,1.054612,-0.2300971,1.019458,846,-631,490
2646.117,3.626844,-19.92933,-0.5889736,-13.48893,1.32945,0.664725,0.7190535,857,-635,478
2646.121,3.63075,-17.48725,2.37026,-3.409343,1.587244,1.899366,0.3515373,860,-623,502
2646.125,3.634656,-13.98693,7.364564,9.198523,1.596831,2.371279,0.06817692,834,-640,474
2646.129,3.638563,-13.2112,10.07001,8.949526,0.9576727,1.269795,-0.09480853,841,-616,513
2646.133,3.642469,-13.48893,11.87524,3.86903,0.2833603,0.06178534,-0.04154531,859,-617,520
2646.137,3.646375,-13.32613,12.80419,0.6799533,0.05113269,-0.5858954,0.08841695,846,-614,492
2646.141,3.650281,-11.57836,11.88482,3.725378,0.3355583,-0.479369,0.2727077,815,-619,484
2646.145,3.654188,-11.79863,10.36689,8.963891,0.6998787,0.4367584,0.499609,871,-642,484
2646.148,3.658094,-14.15452,8.350975,11.54484,0.5613944,1.032241,0.5667207,830,-626,511
2646.152,3.662,-16.71153,5.195418,9.677363,0.2354234,0.922519,0.5624596,875,-610,485
2646.156,3.665906,-14.9063,0.2298434,3.222595,-0.1225054,0.1565939,0.5230448,826,-657,478
2646.16,3.669813,-9.193734,-1.972822,-2.03986,-0.7201188,-0.974717,0.4218447,823,-625,500
2646.164,3.673719,-3.021482,-3.011906,-7.431602,-1.314536,-1.386974,0.3408846,811,-614,513
2646.168,3.677625,0.5793968,-3.974375,-11.4778,-1.865278,-1.28897,0.3472762,818,-608,500
2646.172,3.681531,-0.225055,-7.120356,-10.87446,-2.207228,-0.7510114,0.4388889,867,-609,489
2646.176,3.685438,-3.32794,-9.830592,-6.483498,-2.422411,0.2695119,0.5539375,879,-611,493
2646.18,3.689344,-6.248866,-11.6023,-2.293645,-2.494849,0.7989483,0.4889564,851,-652,491
2646.184,3.69325,-7.52737,-12.03805,-0.6368576,-2.541721,0.8628642,0.2897519,830,-606,507
2646.188,3.697156,-7.110779,-11.34373,-1.695095,-2.472479,0.5752428,0.0628506,843,-636,511
2646.191,3.701063,-6.924031,-10.85052,-2.825158,-2.018676,0.1778992,-0.1715076,821,-588,535
2646.195,3.704969,-7.843405,-10.66377,-3.878607,-1.445564,0.1374191,-0.3376888,831,-603,512
2646.199,3.708875,-10.02213,-10.46266,-4.180276,-0.8649947,0.3771036,-0.5496764,830,-624,483
2646.203,3.712781,-10.78827,-8.312668,-2.691083,-0.4154531,0.7637946,-0.8351673,852,-633,492
2646.207,3.716688,-11.25754,-5.880159,-3.294421,0.02024002,1.031176,-1.261273,823,-618,515
2646.211,3.720594,-12.07156,-4.031836,-4.683058,0.3057309,0.9076053,-1.51161,832,-647,513
2646.215,3.7245,-13.07234,-3.045425,-5.588067,0.5635249,0.7265103,-1.678857,818,-614,513
2646.219,3.728406,-13.69483,-1.977611,-5.396531,0.7819041,0.6562029,-1.803493,805,-619,506
2646.223,3.732313,-14.09227,-0.9624691,-3.89776,0.999218,0.716923,-1.919607,843,-601,507
2646.227,3.736219,-14.04439,-0.01436521,-2.212242,1.073787,0.7392935,-1.923868,853,-620,511
2646.23,3.740125,-13.63258,0.6033388,-1.134852,1.058873,0.6881608,-1.83119,859,-625,518
2646.234,3.744031,-12.96221,1.436521,-0.8619126,0.9970875,0.5986786,-1.67353,858,-608,524
2646.238,3.747938,-12.23437,2.082955,-0.9241618,0.90654,0.535828,-1.424259,856,-619,515
2646.242,3.751844,-11.73159,2.806004,-1.115698,0.8628642,0.5496764,-1.233576,851,-634,498
2646.246,3.75575,-11.44428,3.098097,-1.16837,0.8266452,0.6050702,-1.058873,836,-622,544
2646.25,3.759656,-11.21444,3.122039,-1.11091,0.7222493,0.6988135,-0.8777779,834,-634,492
2646.254,3.763563,-10.88883,2.719813,-0.7565677,0.5688512,0.7499462,-0.8000136,848,-582,507
2646.258,3.767469,-10.54406,2.193089,-0.5554548,0.3856257,0.7520767,-0.7691209,871,-651,482
2646.262,3.771375,-9.988609,1.058237,-0.2346318,0.1715076,0.7307714,-0.7648599,864,-633,526
2646.266,3.775281,-9.572018,0.1915361,-0.1628057,-0.1033307,0.7105314,-0.7957525,792,-641,452
2646.27,3.779188,-9.461885,-0.4884171,-0.296881,-0.2471413,0.716923,-0.8362326,864,-607,517
2646.273,3.783094,-9.414001,-1.043872,-0.6895301,-0.3131877,0.7286409,-0.8894958,861,-617,495
2646.277,3.787,-9.375694,-1.671153,-1.221043,-0.314253,0.7307714,-0.9566075,839,-627,529
2646.281,3.790906,-9.289502,-1.924938,-1.407791,-0.2641856,0.7084008,-1.064199,852,-602,503
2646.285,3.794813,-9.141062,-2.025495,-1.508347,-0.2077266,0.684965,-1.146225,853,-632,493
2646.289,3.798719,-9.006987,-2.102109,-1.493982,-0.1512675,0.6593987,-1.221858,827,-643,499
2646.293,3.802625,-8.983045,-2.293645,-1.556231,-0.08628642,0.6434197,-1.279383,845,-627,525
2646.297,3.806531,-9.030929,-2.327164,-1.546654,0.02663161,0.6498113,-1.330515,865,-592,519
2646.301,3.810438,-9.155427,-2.288857,-1.575385,0.1320928,0.6625945,-1.356082,845,-605,510
2646.305,3.814344,-9.404424,-2.183512,-1.570596,0.2567287,0.6679208,-1.376322,877,-636,530
2646.309,3.81825,-9.495404,-2.044648,-1.403002,0.3941478,0.6615292,-1.397627,849,-610,475
2646.312,3.822156,-9.471462,-1.824382,-1.278504,0.592287,0.6231797,-1.414671,903,-616,510
2646.316,3.826063,-9.308656,-1.632846,-1.115698,0.7446198,0.5869607,-1.423193,869,-600,498
2646.32,3.829969,-9.174581,-1.388637,-1.000776,0.8852347,0.5656554,-1.417867,862,-602,506
2646.324,3.833875,-9.045294,-1.01993,-0.9097966,1.002414,0.5507417,-1.407214,871,-597,521
2646.328,3.837781,-8.99741,-0.7374141,-0.8331822,1.124919,0.5379585,-1.389105,867,-609,520
2646.332,3.841688,-8.930372,-0.3399766,-0.617704,1.184574,0.5305017,-1.373126,846,-611,482
2646.336,3.845594,-8.90643,0.04788403,-0.3687071,1.226119,0.5134575,-1.361408,864,-606,528
2646.34,3.8495,-9.02614,0.4261679,-0.1628057,1.249555,0.4910869,-1.34969,857,-609,519
2646.344,3.853406,-9.126697,0.641646,-0.05267244,1.251686,0.4708469,-1.327319,838,-603,527
2646.348,3.857313,-9.174581,0.890643,0.05746084,1.247425,0.46339,-1.312406,855,-607,498
2646.352,3.861219,-9.198523,1.039084,0.05746084,1.242098,0.4612595,-1.300688,840,-621,523
2646.355,3.865125,-9.059659,1.086968,0.1580173,1.237837,0.4580637,-1.286839,857,-602,523
2646.359,3.869031,-8.987833,1.13964,0.05746084,1.229315,0.4346279,-1.27086,852,-640,493
2646.363,3.872938,-8.805874,1.000776,-0.1771709,1.20801,0.4101268,-1.261273,906,-617,523
2646.367,3.876844,-8.657433,0.9576807,-0.3399766,1.177117,0.3760383,-1.251686,847,-634,499
2646.371,3.88075,-8.51857,0.7613561,-0.521936,1.157942,0.3632552,-1.247425,853,-627,519
2646.375,3.884656,-8.379706,0.5793968,-0.6033388,1.145159,0.3483415,-1.245294,846,-632,507
2646.379,3.888563,-8.250419,0.4118027,-0.7278373,1.140898,0.3451457,-1.244229,897,-589,530
2646.383,3.892469,-8.236054,0.1819593,-0.8475474,1.135572,0.3483415,-1.244229,836,-643,503
2646.387,3.896375,-8.197746,-0.1388637,-0.8714894,1.134507,0.3568636,-1.244229,853,-635,492
2646.391,3.900281,-8.259996,-0.2681506,-0.8379706,1.141963,0.3717773,-1.242098,893,-602,462
2646.395,3.904188,-8.30788,-0.3256114,-0.8858546,1.165399,0.3760383,-1.235707,885,-581,484
2646.398,3.908094,-8.274361,-0.3303998,-0.9433155,1.194161,0.3792341,-1.226119,822,-645,496
2646.402,3.912,-8.355764,-0.2106897,-0.8331822,1.236772,0.3856257,-1.213336,896,-594,506
2646.406,3.915906,-8.33661,-0.03351882,-0.6943185,1.299623,0.4048005,-1.197357,877,-624,494
2646.41,3.919813,-8.394071,0.1388637,-0.5315128,1.345429,0.4197142,-1.177117,894,-626,515
2646.414,3.923719,-8.537723,0.3016694,-0.2106897,1.385909,0.4367584,-1.156877,906,-593,519
2646.418,3.927625,-8.829816,0.5410896,0.02394202,1.423193,0.4548679,-1.132376,899,-632,459
2646.422,3.931531,-8.954314,0.7852981,0.1388637,1.456216,0.4548679,-1.104679,906,-604,520
2646.426,3.935438,-9.040505,1.058237,0.2154781,1.460478,0.4293016,-1.085504,865,-594,499
2646.43,3.939344,-9.08839,1.431733,0.2920926,1.447694,0.3888215,-1.070591,851,-608,517
2646.434,3.94325,-9.016563,1.762132,0.2394202,1.421063,0.350472,-1.053547,885,-633,490
2646.438,3.947156,-9.002198,2.140416,0.3782839,1.361408,0.3057309,-1.043959,875,-602,512
2646.441,3.951063,-9.08839,2.394202,0.4501099,1.297492,0.2950782,-1.037568,846,-612,529
2646.445,3.954969,-9.064447,2.571373,0.5602432,1.213336,0.3014698,-1.029045,919,-610,511
2646.449,3.958875,-9.203311,2.829946,0.4979939,1.116397,0.3057309,-1.024784,865,-628,519
2646.453,3.962781,-9.203311,2.901772,0.3160346,0.974717,0.309992,-1.018393,903,-632,522
2646.457,3.966688,-9.198523,2.944868,0.02394202,0.8681905,0.2918825,-1.015197,867,-609,519
2646.461,3.970594,-9.107543,3.055001,-0.3639187,0.7701862,0.2599245,-1.016262,888,-606,517
2646.465,3.9745,-8.963891,3.035848,-0.6991069,0.6881608,0.2311624,-1.019458,906,-591,492
2646.469,3.978406,-8.820239,2.930503,-0.8762778,0.6029397,0.2173139,-1.019458,880,-610,495
2646.473,3.982313,-8.753201,2.834735,-0.9337386,0.5432849,0.2194445,-1.018393,859,-625,497
2646.477,3.986219,-8.681375,2.547431,-0.9481039,0.4783037,0.2322276,-1.014132,859,-613,514
2646.48,3.990125,-8.719682,2.274492,-0.842759,0.4005394,0.2524677,-1.015197,869,-615,534
2646.484,3.994031,-8.75799,2.054225,-0.866701,0.2833603,0.2897519,-1.012001,914,-618,520
2646.488,3.997938,-8.944737,1.910573,-0.8523358,0.1992044,0.2972088,-1.006675,912,-590,498
2646.492,4.001844,-8.954314,1.853112,-0.7086837,0.1182444,0.2961435,-1.002414,855,-616,537
2646.496,4.00575,-8.968679,1.766921,-0.6560113,0.0479369,0.2833603,-0.9970875,900,-615,483
2646.5,4.009656,-8.872911,1.747767,-0.5123592,-0.03621899,0.2716424,-0.9981528,918,-575,519
2646.504,4.013563,-8.777143,1.786074,-0.4932055,-0.1022654,0.2790993,-0.9906959,875,-598,484
2646.508,4.017469,-8.777143,1.795651,-0.4357447,-0.165116,0.278034,-0.9821738,895,-637,466
2646.512,4.021375,-8.858546,1.853112,-0.3543418,-0.2151834,0.2748382,-0.9715212,890,-615,471
2646.516,4.025281,-8.983045,1.877054,-0.320823,-0.2695119,0.2876214,-0.9566075,891,-604,521
2646.52,4.029188,-8.99741,1.94888,-0.1628057,-0.3004046,0.2961435,-0.9491506,901,-609,499
2646.523,4.033094,-9.074024,1.872266,0.1005565,-0.3217099,0.3046656,-0.9353022,860,-625,518
2646.527,4.037,-8.863335,1.584961,0.3878607,-0.3312972,0.3067962,-0.9203885,905,-589,475
2646.531,4.040906,-8.710106,1.431733,0.5027823,-0.3312972,0.3227751,-0.9097358,894,-616,506
2646.535,4.044813,-8.762778,1.16837,0.6847417,-0.3227751,0.3515373,-0.9076053,870,-640,507
2646.539,4.048719,-8.896853,0.9193734,0.7709329,-0.3089267,0.3802994,-0.8969527,881,-590,526
2646.543,4.052625,-9.136274,0.5123592,0.5410896,-0.2886867,0.3952131,-0.8831042,868,-619,541
2646.547,4.056531,-9.303868,0.272939,0.2537854,-0.2492719,0.3952131,-0.8724516,882,-620,492
2646.551,4.060438,-9.332598,0.1388637,-0.03830723,-0.1864213,0.3760383,-0.86606,885,-616,488
2646.555,4.064344,-9.44752,0.05267244,-0.3112462,-0.1043959,0.3600594,-0.8564726,861,-609,507
2646.559,4.06825,-9.375694,-0.05267244,-0.7469909,-0.01597897,0.3398194,-0.8490158,881,-627,524
2646.562,4.072156,-9.370905,-0.07182605,-0.9481039,0.1075917,0.330232,-0.829841,869,-599,492
2646.566,4.076063,-9.504981,0.04309563,-1.106121,0.2002697,0.314253,-0.8149273,917,-550,477
2646.57,4.079969,-9.543288,0.1005565,-1.307234,0.2801645,0.2844256,-0.8021441,882,-586,527
2646.574,4.083875,-9.485827,0.272939,-1.407791,0.3494067,0.257794,-0.7904262,883,-601,501
2646.578,4.087781,-9.624691,0.3830723,-1.49877,0.4165184,0.2311624,-0.7744472,887,-591,497
2646.582,4.091688,-9.792285,0.4644751,-1.398214,0.4506069,0.2237055,-0.7637946,877,-635,527
2646.586,4.095594,-10.1993,0.5554548,-1.407791,0.46339,0.2098571,-0.7488809,869,-605,498
2646.59,4.0995,-10.4866,0.6464344,-1.312023,0.4655206,0.201335,-0.7350325,908,-562,486
2646.594,4.103406,-10.69729,0.8236054,-1.086968,0.4846953,0.1992044,-0.7243798,885,-606,540
2646.598,4.107313,-10.78348,1.106121,-0.890643,0.5145227,0.1874865,-0.7147924,908,-618,514
2646.602,4.111219,-10.63983,1.312023,-0.7852981,0.5592638,0.1640507,-0.7041398,873,-622,501
2646.605,4.115125,-10.52012,1.704672,-0.7709329,0.6434197,0.1363538,-0.6902914,884,-601,539
2646.609,4.119031,-10.4866,2.001553,-0.9289502,0.7318367,0.1001349,-0.6775082,878,-602,512
2646.613,4.122938,-10.50097,2.197877,-0.9816227,0.8213189,0.08309063,-0.6689861,881,-591,496
2646.617,4.126844,-10.60631,2.403778,-0.7996634,0.8958874,0.06711166,-0.6498113,857,-603,510
2646.621,4.13075,-10.59195,2.513912,-0.7709329,0.9821738,0.01597897,-0.6210492,864,-596,461
2646.625,4.134656,-10.36689,2.590526,-0.6033388,1.037568,-0.0298274,-0.5965481,903,-596,546
2646.629,4.138563,-10.11311,2.652775,-0.3495534,1.08657,-0.06924219,-0.5699165,857,-592,491
2646.633,4.142469,-9.868899,2.973598,-0.3351882,1.120658,-0.09267801,-0.5368933,929,-619,550
2646.637,4.146375,-9.873688,3.222595,-0.4788403,1.148355,-0.1054612,-0.4900216,900,-572,512
2646.641,4.150281,-10.0317,3.529053,-0.593762,1.162203,-0.1182444,-0.4474111,883,-596,527
2646.645,4.154188,-10.21845,4.003105,-0.5985504,1.172856,-0.1267665,-0.4058658,877,-608,503
2646.648,4.158094,-10.34774,4.702212,-0.7086837,1.177117,-0.1374191,-0.3611246,871,-619,513
2646.652,4.162,-10.31422,5.12838,-0.8283938,1.164334,-0.1608549,-0.2950782,885,-584,530
2646.656,4.165906,-10.30464,5.511452,-0.8762778,1.150486,-0.1800297,-0.2460761,917,-624,471
2646.66,4.169813,-10.3238,5.90889,-0.8858546,1.119593,-0.1906823,-0.1917476,913,-618,514
2646.664,4.173719,-10.41478,6.244078,-0.7709329,1.081243,-0.205596,-0.1416802,901,-593,516
2646.668,4.177625,-10.47703,6.445191,-0.6368576,1.000283,-0.2141182,-0.07563377,912,-632,521
2646.672,4.181531,-10.49139,6.62715,-0.4309563,0.9342369,-0.2343582,-0.02769688,917,-581,462
2646.676,4.185438,-10.52491,6.737283,-0.1771709,0.86606,-0.2482066,0.01278317,883,-606,538
2646.68,4.189344,-10.63026,6.876147,0.2633622,0.7914915,-0.2695119,0.05113269,913,-587,515
2646.684,4.19325,-10.73081,6.813898,0.4932055,0.6870956,-0.2833603,0.1065264,883,-604,490
2646.688,4.197156,-10.71645,6.751649,0.6464344,0.6093313,-0.309992,0.149137,841,-611,505
2646.691,4.201063,-10.64941,6.622362,0.7996634,0.5368933,-0.3536678,0.1874865,901,-606,495
2646.695,4.204969,-10.49139,6.560113,0.8619126,0.4708469,-0.3941478,0.2269013,902,-568,476
2646.699,4.208875,-10.4052,6.47871,0.9097966,0.3952131,-0.4143879,0.2748382,896,-566,507
2646.703,4.212781,-10.30464,6.531382,0.6847417,0.3515373,-0.44315,0.3131877,911,-608,510
2646.707,4.216688,-10.25676,6.569689,0.06703765,0.3206446,-0.4708469,0.3600594,886,-591,505
2646.711,4.220594,-10.50097,6.713341,-0.1101333,0.3004046,-0.4974785,0.4090615,885,-590,527
2646.715,4.2245,-11.11388,6.766014,0.6368576,0.2908172,-0.5432849,0.4846953,887,-624,508
2646.719,4.228406,-12.09072,6.861782,1.446098,0.2769688,-0.5912218,0.5550028,878,-629,472
2646.723,4.232313,-13.32134,6.943185,1.939303,0.2396845,-0.6263755,0.6466155,926,-592,492
2646.727,4.236219,-14.43225,7.072472,2.106897,0.181095,-0.6636597,0.7659251,935,-591,524
2646.73,4.240125,-14.6573,7.388506,2.619257,0.0958738,-0.777643,0.9342369,910,-616,517
2646.734,4.244031,-14.3269,7.924807,3.438074,0.03834952,-0.8990832,1.043959,864,-588,513
2646.738,4.247938,-13.74272,8.647856,3.993528,-0.0330232,-1.000283,1.134507,882,-638,473
2646.742,4.251844,-12.64617,9.227253,3.404555,-0.1107875,-1.087635,1.20801,908,-608,506
2646.746,4.25575,-12.02847,9.270349,2.844312,-0.1789644,-1.171791,1.301753,883,-575,474
2646.75,4.259656,-11.6837,8.801085,2.355894,-0.205596,-1.161138,1.36993,876,-632,509
2646.754,4.263563,-11.5209,7.967903,2.03986,-0.2279666,-1.136637,1.43065,898,-606,507
2646.758,4.267469,-11.48259,6.287174,1.900996,-0.2844256,-1.097222,1.49137,903,-644,524
2646.762,4.271375,-11.45386,4.711789,1.934515,-0.4580637,-1.02798,1.574461,893,-610,486
2646.766,4.275281,-11.33415,3.117251,2.164358,-0.6189186,-1.022654,1.63092,894,-612,508
2646.77,4.279188,-11.21444,1.695095,2.346318,-0.7680557,-1.014132,1.677791,880,-597,486
2646.773,4.283094,-11.08994,-0.01915361,2.140416,-0.8777779,-1.018393,1.722533,889,-619,518
2646.777,4.287,-11.20965,-1.273715,1.268927,-0.9363674,-1.049285,1.777926,930,-635,492
2646.781,4.290906,-11.48259,-2.403778,-0.04788403,-0.8926916,-1.057808,1.81095,920,-615,476
2646.785,4.294813,-11.9327,-3.476381,-1.16837,-0.7765778,-1.080178,1.83332,892,-619,482
2646.789,4.298719,-12.75631,-4.821922,-1.446098,-0.5869607,-1.105744,1.862082,892,-612,511
2646.793,4.302625,-13.49372,-5.583278,-1.47004,-0.2322276,-1.145159,1.916411,870,-585,523
2646.797,4.306531,-14.24071,-6.100426,-1.623269,0.0628506,-1.132376,1.964348,899,-622,484
2646.801,4.310438,-14.9877,-6.263232,-1.661576,0.3291667,-1.076982,2.008023,887,-616,514
2646.805,4.314344,-15.88313,-5.918467,-1.757344,0.5454154,-0.9928265,2.051699,934,-621,513
2646.809,4.31825,-16.34282,-5.272032,-1.939303,0.7701862,-0.8809737,2.106028,890,-620,466
2646.812,4.322156,-16.58703,-4.486734,-2.135628,0.9001484,-0.7882957,2.179531,906,-614,513
2646.816,4.326063,-16.64449,-3.457227,-2.245761,0.9757822,-0.680704,2.244512,901,-590,503
2646.82,4.329969,-16.61097,-1.853112,-2.221819,1.004544,-0.572047,2.270079,873,-615,493
2646.824,4.333875,-16.33803,-0.6320692,-2.106897,0.9672601,-0.4697816,2.223207,896,-609,538
2646.828,4.337781,-16.08904,0.4070143,-1.987187,0.902279,-0.4207795,2.169944,883,-648,504
2646.832,4.341688,-15.73469,1.005565,-1.982399,0.8234494,-0.4111921,2.132659,870,-616,484
2646.836,4.345594,-15.32768,1.431733,-1.987187,0.7499462,-0.4197142,2.11668,866,-611,544
2646.84,4.3495,-15.05953,1.58975,-1.862689,0.6689861,-0.3941478,2.106028,890,-624,496
2646.844,4.353406,-14.79617,1.671153,-1.82917,0.5965481,-0.3739078,2.090049,848,-598,490
2646.848,4.357313,-14.53759,1.704672,-1.58975,0.4921522,-0.3174488,2.07407,875,-663,484
2646.852,4.361219,-14.2886,1.766921,-1.106121,0.3717773,-0.2567287,2.059156,865,-591,476
2646.855,4.365125,-14.16889,1.762132,-0.5841852,0.1938781,-0.1619202,2.041047,849,-607,526
2646.859,4.369031,-13.92947,1.8579,-0.07182605,0.0628506,-0.08628642,2.028263,880,-611,478
2646.863,4.372938,-13.80018,1.805228,0.4501099,-0.05645902,-0.04367584,2.024002,849,-587,473
2646.867,4.376844,-13.64216,1.790863,1.120486,-0.1587244,-0.01597897,2.026133,879,-626,456
2646.871,4.38075,-13.56076,1.723825,1.398214,-0.257794,-0.01384844,2.037851,856,-629,496
2646.875,4.384656,-13.42189,1.613692,1.594538,-0.3185141,-0.0149137,2.044242,868,-588,498
2646.879,4.388563,-13.2543,1.513135,1.565808,-0.3749731,-0.0149137,2.048504,895,-675,513
2646.883,4.392469,-13.03882,1.187524,1.426944,-0.4388889,-0.02343582,2.054895,867,-603,524
2646.887,4.396375,-12.82813,1.082179,1.187524,-0.5283712,-0.02130529,2.061287,878,-629,483
2646.891,4.400281,-12.50731,0.9816227,0.8858546,-0.6018744,-0.0298274,2.064482,857,-624,502
2646.895,4.404188,-12.17212,0.914585,0.7134721,-0.6902914,-0.0298274,2.068744,885,-648,509
2646.898,4.408094,-11.73159,0.9289502,0.5027823,-0.7872304,-0.02876214,2.070874,829,-601,507
2646.902,4.412,-11.44428,0.9720459,0.5171476,-0.942759,-0.02663161,2.0762,824,-590,469
2646.906,4.415906,-11.1474,0.9002198,0.4453215,-1.059938,-0.04154531,2.079396,895,-600,520
2646.91,4.419813,-10.82179,0.9481039,0.4357447,-1.180313,-0.05965481,2.077266,847,-607,494
2646.914,4.423719,-10.40041,0.9576807,0.4501099,-1.307079,-0.05965481,2.064482,871,-630,517
2646.918,4.427625,-10.17057,0.9002198,0.5123592,-1.460478,-0.08415589,2.051699,859,-591,471
2646.922,4.431531,-9.998186,0.7038953,0.5027823,-1.562743,-0.1043959,2.041047,863,-645,495
2646.926,4.435438,-9.720459,0.641646,0.5123592,-1.641572,-0.1395496,2.031459,849,-587,504
2646.93,4.439344,-9.562441,0.3878607,0.545878,-1.706554,-0.1619202,2.017611,847,-607,477
2646.934,4.44325,-9.500192,0.1149217,0.5841852,-1.765143,-0.2002697,1.996306,874,-633,504
2646.938,4.447156,-9.337386,-0.1340753,0.6799533,-1.791775,-0.2290319,1.981392,852,-611,500
2646.941,4.451063,-9.179369,-0.4070143,0.7278373,-1.805623,-0.241815,1.968609,859,-599,500
2646.945,4.454969,-9.097966,-0.7852981,0.7709329,-1.809884,-0.2844256,1.951564,847,-624,483
2646.949,4.458875,-8.939949,-1.015142,0.7230489,-1.81095,-0.3238404,1.935585,870,-610,513
2646.953,4.462781,-8.791508,-1.211466,0.7230489,-1.807754,-0.3557983,1.923868,848,-632,525
2646.957,4.466688,-8.398859,-1.426944,0.6991069,-1.800297,-0.386691,1.91215,803,-632,530
2646.961,4.470594,-8.101978,-1.642422,0.6655881,-1.793905,-0.3962784,1.898301,850,-616,519
2646.965,4.4745,-7.790732,-1.68073,0.56982,-1.782187,-0.4165184,1.882322,824,-628,470
2646.969,4.478406,-7.522582,-1.82917,0.56982,-1.784318,-0.4261058,1.864213,882,-644,474
2646.973,4.482313,-7.16824,-1.838747,0.3926491,-1.789644,-0.4197142,1.846103,832,-639,516
2646.977,4.486219,-6.947973,-1.862689,0.2537854,-1.793905,-0.4154531,1.818406,834,-591,512
2646.98,4.490125,-6.761225,-1.881843,0.2011129,-1.798166,-0.3973436,1.781122,863,-674,484
2646.984,4.494031,-6.660669,-1.867477,0.03351882,-1.794971,-0.3834952,1.740642,833,-665,499
2646.988,4.497938,-6.593631,-1.843535,0.004788403,-1.79071,-0.3557983,1.700162,834,-648,512
2646.992,4.501844,-6.593631,-1.810016,-0.01915361,-1.778992,-0.314253,1.631985,869,-615,479
2646.996,4.50575,-6.689399,-1.867477,-0.07661445,-1.761947,-0.2972088,1.581918,854,-624,482
2647,4.509656,-6.742072,-1.833958,-0.04788403,-1.739577,-0.2865561,1.528654,831,-603,511
2647.004,4.513563,-6.833052,-1.853112,-0.1005565,-1.710815,-0.278034,1.472195,810,-612,510
2647.008,4.517469,-6.895301,-1.819593,-0.1436521,-1.666074,-0.2790993,1.386974,881,-655,489
2647.012,4.521375,-6.909666,-1.900996,-0.2346318,-1.624528,-0.2844256,1.317732,831,-613,494
2647.016,4.525281,-6.871359,-1.972822,-0.3734955,-1.577657,-0.2876214,1.25062,852,-612,514
2647.02,4.529188,-6.856994,-2.006341,-0.4740519,-1.518002,-0.2908172,1.184574,846,-612,489
2647.023,4.533094,-6.785168,-2.073379,-0.5793968,-1.425324,-0.2950782,1.094027,824,-623,494
2647.027,4.537,-6.689399,-2.207454,-0.6655881,-1.343298,-0.2854909,1.030111,849,-629,512
2647.031,4.540906,-6.545747,-2.303222,-0.8475474,-1.252751,-0.2716424,0.9672601,869,-614,489
2647.035,4.544813,-6.315904,-2.422932,-0.9768343,-1.14729,-0.2460761,0.9054748,850,-640,486
2647.039,4.548719,-6.191405,-2.571373,-1.144428,-0.9981528,-0.201335,0.8277105,836,-647,479
2647.043,4.552625,-6.052542,-2.657564,-1.326388,-0.8767126,-0.169377,0.7755125,831,-639,477
2647.047,4.556531,-5.999869,-2.873042,-1.551443,-0.7403588,-0.1363538,0.7254451,871,-677,482
2647.051,4.560438,-5.827487,-3.174711,-1.872266,-0.5944176,-0.09906959,0.6775082,838,-629,502
2647.055,4.564344,-5.774814,-3.557784,-2.164358,-0.386691,-0.04048005,0.6135923,827,-612,492
2647.059,4.56825,-5.650316,-3.931279,-2.446874,-0.2151834,-0.001065264,0.5624596,843,-638,505
2647.062,4.572156,-5.588067,-4.247314,-2.657564,-0.03834952,0.05219796,0.5123922,810,-657,504
2647.066,4.576063,-5.48751,-4.668693,-2.686294,0.1395496,0.1278317,0.4569984,842,-636,504
2647.07,4.579969,-5.516241,-5.080496,-2.60968,0.3632552,0.2290319,0.3728426,840,-627,468
2647.074,4.583875,-5.549759,-5.334281,-2.274492,0.5145227,0.2918825,0.2993393,879,-619,493
2647.078,4.587781,-5.612009,-5.688623,-1.824382,0.6338323,0.3430151,0.2162487,847,-613,467
2647.082,4.591688,-5.597643,-6.019023,-1.47004,0.7062703,0.3781689,0.1384844,824,-611,481
2647.086,4.595594,-5.549759,-6.05733,-1.28808,0.7595335,0.3984089,0.02450108,816,-619,502
2647.09,4.5995,-5.434838,-5.918467,-1.149217,0.8032094,0.40267,-0.06178534,871,-601,510
2647.094,4.603406,-5.434838,-5.602432,-0.9385271,0.8745821,0.4016047,-0.1406149,826,-634,522
2647.098,4.607313,-5.525817,-5.109226,-0.5793968,0.9704559,0.4154531,-0.2226403,826,-600,490
2647.102,4.611219,-5.78918,-4.64954,-0.2106897,1.112136,0.4463458,-0.334493,865,-609,535
2647.105,4.615125,-6.052542,-4.060566,0.2154781,1.215467,0.4708469,-0.4293016,819,-628,474
2647.109,4.619031,-6.325481,-3.548207,0.6607997,1.30921,0.495348,-0.519849,826,-646,479
2647.113,4.622938,-6.909666,-2.801216,1.307234,1.381648,0.5273059,-0.6072007,854,-629,494
2647.117,4.626844,-7.484274,-2.202666,1.810016,1.443433,0.5784386,-0.7329019,819,-634,484
2647.121,4.63075,-8.250419,-1.484405,2.422932,1.449825,0.6040049,-0.8415589,861,-646,489
2647.125,4.634656,-8.987833,-0.6224924,2.887407,1.424259,0.6050702,-0.958738,858,-631,464
2647.129,4.638563,-9.77792,0.7374141,3.236961,1.358212,0.5752428,-1.067395,884,-648,475
2647.133,4.642469,-10.17536,1.867477,3.442862,1.201618,0.5049353,-1.190966,844,-631,486
2647.137,4.646375,-10.27591,3.026271,3.572149,1.026915,0.4378237,-1.255947,825,-591,491
2647.141,4.650281,-10.19451,4.146757,3.744531,0.8085357,0.3472762,-1.300688,846,-624,503
2647.145,4.654188,-9.639056,5.549759,3.96001,0.5592638,0.2407498,-1.336907,906,-616,480
2647.148,4.658094,-9.112332,6.607997,4.055778,0.1917476,0.07456851,-1.373126,843,-614,493
2647.152,4.662,-8.939949,7.469909,4.151546,-0.1193096,-0.0330232,-1.381648,837,-652,515
2647.156,4.665906,-8.767566,8.317457,4.156334,-0.4420847,-0.1033307,-1.378452,846,-610,499
2647.16,4.669813,-8.815451,9.399636,4.170699,-0.7691209,-0.1267665,-1.366734,840,-647,506
2647.164,4.673719,-8.916007,10.25676,4.094085,-1.16966,-0.09161274,-1.342233,832,-616,513
2647.168,4.677625,-8.801085,10.91277,4.041412,-1.432781,-0.02663161,-1.317732,858,-608,488
2647.172,4.681531,-8.370129,11.67892,4.027047,-1.638377,0.05645902,-1.2911,861,-631,488
2647.176,4.685438,-7.359776,12.75631,3.964798,-1.777926,0.1235707,-1.259143,834,-619,480
2647.18,4.689344,-6.952762,13.45541,3.160346,-1.872735,0.1715076,-1.198422,840,-609,467
2647.184,4.69325,-7.115567,13.80976,1.723825,-1.885518,0.2343582,-1.122789,852,-644,503
2647.188,4.697156,-7.891289,13.88637,0.3256114,-1.83332,0.4452805,-1.033307,838,-627,484
2647.191,4.701063,-9.888053,13.82891,-0.03830723,-1.695901,0.8596684,-0.9448896,865,-626,484
2647.195,4.704969,-11.54963,13.7906,1.177947,-1.377387,1.591505,-0.8713863,823,-645,498
2647.199,4.708875,-12.88559,13.64216,3.093309,-1.040763,2.017611,-0.8447547,861,-597,489
2647.203,4.712781,-13.94383,13.41232,5.003881,-0.6679208,2.160356,-0.8127968,852,-647,503
2647.207,4.716688,-14.59026,13.16332,7.335834,-0.2812298,1.965413,-0.7584683,870,-617,518
2647.211,4.720594,-14.37958,13.30218,8.212112,0.2002697,1.300688,-0.644485,848,-611,530
2647.215,4.7245,-13.72356,13.57512,8.159439,0.4825648,0.6338323,-0.5486112,821,-618,509
2647.219,4.728406,-12.55998,13.84806,6.952762,0.6828345,-0.02024002,-0.4516721,824,-601,531
2647.223,4.732313,-10.81221,14.14973,4.91769,0.8117315,-0.5091964,-0.3717773,850,-661,514
2647.227,4.736219,-9.591172,14.05875,3.457227,0.8575379,-0.7669904,-0.2897519,812,-614,521
2647.23,4.740125,-8.78672,13.59907,2.384625,0.7584683,-0.664725,-0.2482066,863,-642,504
2647.234,4.744031,-8.441955,12.97657,1.575385,0.5390238,-0.4037352,-0.2024002,843,-578,462
2647.238,4.747938,-8.820239,12.04283,1.034295,0.2247708,-0.07456851,-0.1523328,841,-629,496
2647.242,4.751844,-9.418789,11.13304,1.063026,-0.2535329,0.3163835,-0.06498113,835,-627,510
2647.246,4.75575,-10.09395,10.09395,1.561019,-0.5965481,0.5091964,0.03089267,829,-639,534
2647.25,4.759656,-10.55843,8.992621,2.097321,-0.8969527,0.5986786,0.1544633,848,-668,503
2647.254,4.763563,-10.79785,7.455544,2.528277,-1.138768,0.588026,0.2886867,816,-629,505
2647.258,4.767469,-10.58237,6.248866,2.37026,-1.339037,0.4761732,0.4836301,855,-667,504
2647.262,4.771375,-10.20409,5.142745,2.351106,-1.375256,0.4079963,0.6391587,822,-639,493
2647.266,4.775281,-9.811438,4.223372,2.537854,-1.306014,0.3792341,0.7882957,863,-630,486
2647.27,4.779188,-9.399636,3.256114,2.772486,-1.134507,0.3462109,0.9139969,865,-620,513
2647.273,4.783094,-8.99741,2.734178,2.839523,-0.7904262,0.3078614,1.04609,847,-658,515
2647.277,4.787,-8.748413,2.461239,3.347094,-0.4857606,0.2854909,1.121723,877,-637,485
2647.281,4.790906,-8.920795,2.149993,4.419696,-0.1544633,0.2492719,1.180313,821,-609,487
2647.285,4.794813,-10.63983,2.169147,5.784391,0.1906823,0.2322276,1.220793,864,-622,480
2647.289,4.798719,-14.00129,2.212242,7.029376,0.6295713,0.3398194,1.222924,836,-617,535
2647.293,4.802625,-18.68435,1.407791,2.896984,0.9693906,0.519849,1.14729,865,-643,546
2647.297,4.806531,-21.39937,-0.7374141,-4.711789,1.246359,0.8554073,0.9736517,866,-642,508
2647.301,4.810438,-18.89504,-0.9097966,-6.483498,1.443433,1.45089,0.6593987,858,-650,491
2647.305,4.814344,-15.61498,1.484405,-0.1532289,1.685248,1.953695,0.08628642,826,-641,499
2647.309,4.81825,-13.72835,4.343082,6.861782,1.642638,1.459412,-0.1832255,850,-617,508
2647.312,4.822156,-11.38203,7.244854,9.303868,1.277252,0.4261058,-0.2790993,865,-648,502
2647.316,4.826063,-10.23761,11.12346,4.371812,0.7861652,-0.4761732,-0.3515373,888,-660,505
2647.32,4.829969,-9.811438,11.84172,0.2346318,0.6657903,-0.8074704,-0.4154531,811,-589,495
2647.324,4.833875,-9.294291,10.8601,-0.1244985,1.074852,-0.4143879,-0.2620551,848,-616,538
2647.328,4.837781,-10.05086,9.466673,4.280833,1.432781,0.3685815,-0.006391587,850,-607,507
2647.332,4.841688,-12.55041,6.995857,7.139509,1.252751,1.201618,0.1981392,886,-638,505
2647.336,4.845594,-15.85919,4.213795,7.699753,0.5070659,1.481783,0.2727077,820,-631,521
2647.34,4.8495,-17.33881,1.278504,4.606444,-0.06924219,0.8522115,0.2098571,853,-631,474
2647.344,4.853406,-12.8425,-1.154005,-1.675941,-0.5752428,-0.1139833,0.1097222,855,-635,517
2647.348,4.857313,-6.876147,-3.280056,-6.689399,-1.140898,-1.090831,-0.002130529,843,-623,503
2647.352,4.861219,-2.557007,-4.817134,-10.96544,-1.488174,-1.212271,-0.02237055,837,-607,498
2647.355,4.865125,-1.216254,-6.646304,-11.3964,-1.6714,-0.8010789,0.04261058,870,-616,508
2647.359,4.869031,-3.337517,-9.126697,-5.808333,-1.770469,-0.08841695,0.1416802,843,-625,486
2647.363,4.872938,-5.932832,-10.51055,-0.521936,-1.969674,0.7105314,0.1885518,817,-649,492
2647.367,4.876844,-8.51857,-11.33415,2.552219,-2.156095,0.8788432,0.1107875,849,-619,506
2647.371,4.88075,-10.79306,-11.83693,1.661576,-2.188053,0.6530071,-0.02876214,855,-636,491
2647.375,4.884656,-12.10508,-11.69807,-1.182736,-1.948369,0.2929477,-0.1970739,860,-643,494
2647.379,4.888563,-10.77391,-9.868899,-2.078167,-1.262338,0.06711166,-0.4932174,863,-639,517
2647.383,4.892469,-8.705317,-6.967127,-3.490746,-0.6040049,0.0479369,-0.7542072,861,-580,511
2647.387,4.896375,-8.092402,-4.668693,-5.602432,0.03408846,0.05006743,-0.9672601,854,-633,487
2647.391,4.900281,-9.346963,-3.131616,-7.096414,0.5251754,0.1438107,-1.101483,834,-659,505
2647.395,4.904188,-10.95587,-2.442086,-6.277597,0.8916263,0.4814995,-1.264469,825,-640,501
2647.398,4.908094,-12.73236,-1.987187,-5.257667,1.021589,0.7147924,-1.432781,847,-622,494
2647.402,4.912,-13.67089,-1.939303,-4.280833,1.080178,0.777643,-1.589375,862,-615,503
2647.406,4.915906,-13.40274,-1.991976,-2.604891,1.062069,0.6988135,-1.665008,860,-603,485
2647.41,4.919813,-12.37323,-1.8579,-1.460463,0.9576727,0.4804343,-1.626659,869,-650,508
2647.414,4.923719,-11.38203,-1.503559,-1.058237,0.8671253,0.3238404,-1.524393,845,-632,497
2647.418,4.927625,-10.55364,-0.8523358,-1.302446,0.8170578,0.2748382,-1.384844,862,-627,504
2647.422,4.931531,-10.22324,0.06703765,-1.747767,0.8511463,0.3600594,-1.237837,832,-615,512
2647.426,4.935438,-10.34295,0.6224924,-1.944092,0.9523464,0.5262406,-1.079113,831,-639,497
2647.43,4.939344,-10.56322,1.086968,-1.896208,0.9843043,0.6593987,-0.994957,831,-669,501
2647.434,4.94325,-10.63983,1.628057,-1.795651,0.9139969,0.7329019,-0.9512811,837,-615,515
2647.438,4.947156,-10.25197,2.260126,-1.58975,0.7701862,0.7392935,-0.9406285,843,-672,503
2647.441,4.951063,-9.89763,2.418144,-1.575385,0.5379585,0.6870956,-0.938498,869,-619,504
2647.445,4.954969,-9.533711,2.303222,-1.637634,0.3888215,0.648746,-0.938498,835,-620,496
2647.449,4.958875,-9.260772,1.891419,-1.58975,0.2844256,0.6348976,-0.9480853,858,-610,497
2647.453,4.962781,-9.150639,1.13964,-1.561019,0.2354234,0.6370281,-0.9715212,834,-624,487
2647.457,4.966688,-9.050082,0.5171476,-1.556231,0.2439456,0.6210492,-1.030111,876,-620,527
2647.461,4.970594,-8.916007,-0.004788403,-1.608904,0.2844256,0.592287,-1.082309,868,-637,532
2647.465,4.9745,-8.805874,-0.5123592,-1.728614,0.3291667,0.5528722,-1.135572,858,-614,532
2647.469,4.978406,-8.614338,-1.072602,-1.690306,0.366451,0.5145227,-1.193096,835,-612,498
2647.473,4.982313,-8.590396,-1.417367,-1.671153,0.4239752,0.4846953,-1.260208,879,-636,492
2647.477,4.986219,-8.604761,-1.508347,-1.546654,0.4751079,0.4804343,-1.300688,869,-680,462
2647.48,4.990125,-8.676587,-1.431733,-1.556231,0.5422196,0.4825648,-1.330515,850,-622,498
2647.484,4.994031,-8.834604,-1.307234,-1.642422,0.6210492,0.4932174,-1.341168,865,-638,499
2647.488,4.997938,-8.963891,-1.134852,-1.575385,0.737163,0.4964132,-1.344364,840,-617,506
2647.492,5.001844,-8.99741,-0.914585,-1.532289,0.8234494,0.4889564,-1.339037,863,-602,506
2647.496,5.00575,-8.963891,-0.6033388,-1.37906,0.90654,0.4655206,-1.332646,852,-595,526
2647.5,5.009656,-8.781932,-0.2106897,-1.28808,0.9811085,0.4324974,-1.324124,850,-632,474
2647.504,5.013563,-8.609549,0.02394202,-1.144428,1.067395,0.3898868,-1.308145,877,-583,526
2647.508,5.017469,-8.413225,0.248997,-0.8762778,1.120658,0.3824299,-1.28897,853,-629,502
2647.512,5.021375,-8.470685,0.3591302,-0.6703765,1.156877,0.4037352,-1.264469,870,-647,514
2647.516,5.025281,-8.69574,0.521936,-0.4692635,1.177117,0.4420847,-1.243164,875,-662,500
2647.52,5.029188,-8.954314,0.6943185,-0.3303998,1.176052,0.4910869,-1.216532,862,-606,534
2647.523,5.033094,-9.08839,0.8475474,-0.296881,1.160073,0.5070659,-1.205879,878,-623,498
2647.527,5.037,-9.32781,0.9720459,-0.2873042,1.137702,0.499609,-1.200553,869,-630,500
2647.531,5.040906,-9.442731,1.077391,-0.320823,1.125985,0.46339,-1.195227,892,-632,535
2647.535,5.044813,-9.337386,1.182736,-0.4357447,1.123854,0.4037352,-1.192031,874,-615,528
2647.539,5.048719,-9.102755,1.240196,-0.5171476,1.12705,0.3621899,-1.188835,870,-612,493
2647.543,5.052625,-8.896853,1.163582,-0.6129156,1.137702,0.3387541,-1.185639,859,-588,521
2647.547,5.056531,-8.829816,1.000776,-0.7613561,1.14729,0.330232,-1.180313,893,-622,494
2647.551,5.060438,-8.748413,0.7469909,-0.8236054,1.14729,0.3259709,-1.170726,876,-669,508
2647.555,5.064344,-8.628703,0.56982,-0.7900865,1.144094,0.3334278,-1.16753,869,-619,490
2647.559,5.06825,-8.599972,0.4261679,-0.8810662,1.138768,0.3323625,-1.16753,884,-646,460
2647.562,5.072156,-8.542512,0.3064578,-0.9672575,1.137702,0.3366236,-1.171791,893,-583,510
2647.566,5.076063,-8.523358,0.1915361,-0.9864111,1.14729,0.3366236,-1.179248,877,-635,475
2647.57,5.079969,-8.590396,0.1819593,-1.058237,1.163269,0.3334278,-1.183509,929,-612,506
2647.574,5.083875,-8.652645,0.1867477,-1.043872,1.181378,0.3312972,-1.1899,875,-657,502
2647.578,5.087781,-8.796297,0.2202666,-0.866701,1.206945,0.3334278,-1.194161,869,-624,505
2647.582,5.091688,-8.753201,0.3495534,-0.8619126,1.244229,0.3185141,-1.198422,900,-629,501
2647.586,5.095594,-8.772355,0.4884171,-0.7230489,1.267665,0.3036004,-1.195227,890,-613,509
2647.59,5.0995,-8.734048,0.641646,-0.6033388,1.287905,0.2950782,-1.18777,871,-638,486
2647.594,5.103406,-8.734048,1.039084,-0.4118027,1.30921,0.2886867,-1.177117,834,-636,488
2647.598,5.107313,-8.810662,1.369483,-0.248997,1.339037,0.2908172,-1.157942,849,-634,488
2647.602,5.111219,-8.791508,1.771709,-0.1005565,1.357147,0.2961435,-1.144094,887,-612,518
2647.605,5.115125,-8.810662,2.03986,0.07661445,1.370995,0.2929477,-1.122789,920,-642,494
2647.609,5.119031,-8.858546,2.331952,0.2298434,1.36993,0.2801645,-1.10681,903,-618,465
2647.613,5.122938,-8.949526,2.533065,0.2394202,1.340103,0.257794,-1.084439,822,-625,493
2647.617,5.126844,-8.983045,2.796428,0.1532289,1.292166,0.237554,-1.074852,890,-627,477
2647.621,5.13075,-8.992621,3.031059,0.09576807,1.211206,0.2162487,-1.06846,864,-597,482
2647.625,5.134656,-8.959103,3.332729,0.06224924,1.113201,0.1864213,-1.064199,861,-607,505
2647.629,5.138563,-8.825027,3.548207,-0.04309563,0.9544769,0.1342233,-1.058873,883,-591,500
2647.633,5.142469,-8.609549,3.600879,-0.1101333,0.8287757,0.09480853,-1.053547,877,-624,521
2647.637,5.146375,-8.494627,3.667917,-0.1340753,0.6956177,0.07243798,-1.050351,904,-648,520
2647.641,5.150281,-8.394071,3.634398,-0.2681506,0.5539375,0.0809601,-1.045024,892,-626,485
2647.645,5.154188,-8.384494,3.380613,-0.2537854,0.370712,0.1075917,-1.029045,894,-610,486
2647.648,5.158094,-8.408436,3.203442,-0.2537854,0.2311624,0.1406149,-1.021589,891,-645,488
2647.652,5.162,-8.398859,2.844312,-0.2777274,0.1022654,0.169377,-1.015197,864,-623,523
