t_native_s,t_opt_s,ax,ay,az,gx,gy,gz,mx,my,mz
2648.926,0.0019375,-9.945514,-0.2633622,0.9576807,0.06498113,0.05432849,0.06391587,276,-995,77
2648.93,0.00584375,-9.983821,-0.2394202,0.9385271,0.06817692,0.05006743,0.0660464,312,-1045,12
2648.934,0.00975,-9.940725,-0.1867477,0.9337386,0.06924219,0.03941478,0.06924219,276,-1047,91
2648.938,0.01365625,-10.02692,-0.1436521,0.9528923,0.07030745,0.03195793,0.07350325,259,-1028,22
2648.941,0.0175625,-10.04128,-0.1149217,0.8523358,0.07243798,0.02876214,0.0777643,231,-1007,57
2648.945,0.02146875,-10.06044,-0.04788403,0.890643,0.07137272,0.02663161,0.07882957,295,-1018,26
2648.949,0.025375,-10.05565,-0.04309563,0.9193734,0.07030745,0.02237055,0.08415589,280,-1071,-5
2648.953,0.02928125,-10.0748,-0.04309563,0.9050082,0.07456851,0.0181095,0.08735168,289,-1063,80
2648.957,0.0331875,-10.00776,-0.03830723,0.9002198,0.0809601,0.01704423,0.09161274,234,-1026,101
2648.961,0.03709375,-9.979033,-0.1101333,0.8858546,0.08415589,0.01384844,0.09267801,248,-994,25
2648.965,0.041,-9.907206,-0.1053449,0.9097966,0.08415589,0.00958738,0.09693906,291,-1033,-28
2648.969,0.04490625,-9.902418,-0.08140286,0.8954314,0.08628642,0.007456851,0.09906959,315,-1067,14
2648.973,0.0488125,-9.811438,-0.1244985,0.9672575,0.08522115,0.01065264,0.1033307,323,-1046,50
2648.977,0.05271875,-9.844957,-0.1867477,0.890643,0.08735168,0.0149137,0.1054612,275,-1026,56
2648.98,0.056625,-9.821015,-0.1819593,0.9050082,0.08948221,0.0181095,0.108657,286,-1027,26
2648.984,0.06053125,-9.83538,-0.2202666,0.9097966,0.09693906,0.0181095,0.108657,330,-1061,40
2648.988,0.0644375,-9.825804,-0.2346318,0.890643,0.09480853,0.01384844,0.1097222,294,-1043,47
2648.992,0.06834375,-9.787496,-0.3303998,0.9528923,0.09480853,0.008522115,0.1107875,255,-1075,70
2648.996,0.07225,-9.773131,-0.248997,0.9768343,0.09693906,0.006391587,0.1150486,246,-1008,35
2649,0.07615625,-9.844957,-0.1915361,1.005565,0.09480853,0.003195793,0.1150486,310,-1015,9
2649.004,0.0800625,-9.801862,-0.1675941,1.029507,0.09161274,-0.005326322,0.1182444,314,-1052,13
2649.008,0.08396875,-9.830592,-0.1101333,0.9911995,0.09054748,-0.007456851,0.1203749,298,-1040,69
2649.012,0.087875,-9.849746,-0.1149217,1.015142,0.09480853,-0.007456851,0.1235707,271,-998,62
2649.016,0.09178125,-9.902418,-0.04788403,1.058237,0.1022654,-0.01597897,0.1225054,266,-1005,4
2649.02,0.0956875,-9.955091,0.009576807,1.125275,0.1054612,-0.02450108,0.1235707,333,-1002,-2
2649.023,0.09959375,-9.935937,-0.02394202,1.130063,0.1107875,-0.02556635,0.1257012,290,-1065,81
2649.027,0.1035,-9.89763,0.004788403,1.182736,0.1182444,-0.03408846,0.1278317,265,-1076,59
2649.031,0.1074063,-9.868899,0.04788403,1.182736,0.1203749,-0.04474111,0.1278317,264,-1042,82
2649.035,0.1113125,-9.825804,0.05746084,1.216254,0.1235707,-0.05113269,0.1299623,303,-1004,36
2649.039,0.1152188,-9.744401,0.04309563,1.206678,0.1331581,-0.0479369,0.128897,293,-1035,-2
2649.043,0.119125,-9.725247,-0.02394202,1.273715,0.1416802,-0.05858954,0.1235707,340,-1059,52
2649.047,0.1230313,-9.710882,0.03830723,1.206678,0.1416802,-0.06924219,0.1161138,283,-1062,24
2649.051,0.1269375,-9.667786,0.05267244,1.268927,0.1438107,-0.06498113,0.1139833,227,-1051,28
2649.055,0.1308438,-9.658209,0.04309563,1.249773,0.1608549,-0.07030745,0.1033307,308,-1012,-8
2649.059,0.13475,-9.662998,-0.01436521,1.297657,0.1672465,-0.0809601,0.09480853,334,-1084,58
2649.062,0.1386563,-9.600749,-0.009576807,1.25935,0.1661813,-0.08415589,0.08628642,241,-1083,57
2649.066,0.1425625,-9.619902,-0.03830723,1.340753,0.1800297,-0.0777643,0.07563377,273,-1038,60
2649.07,0.1464688,-9.605537,-0.06703765,1.369483,0.1992044,-0.08628642,0.0628506,303,-993,29
2649.074,0.150375,-9.572018,-0.1580173,1.364695,0.1992044,-0.08841695,0.05752428,283,-1036,26
2649.078,0.1542813,-9.572018,-0.1436521,1.335965,0.1981392,-0.08628642,0.0479369,308,-1032,42
2649.082,0.1581875,-9.538499,-0.2202666,1.364695,0.2087918,-0.08735168,0.03834952,258,-1004,52
2649.086,0.1620938,-9.557653,-0.1963245,1.369483,0.2098571,-0.09800433,0.02343582,246,-1033,43
2649.09,0.166,-9.504981,-0.1819593,1.278504,0.205596,-0.09906959,0.003195793,321,-981,1
2649.094,0.1699063,-9.490615,-0.2537854,1.316811,0.2109224,-0.1001349,-0.0149137,311,-1025,65
2649.098,0.1738125,-9.500192,-0.1963245,1.345541,0.2109224,-0.1075917,-0.03408846,271,-1062,87
2649.102,0.1777188,-9.481039,-0.1149217,1.28808,0.2034655,-0.112918,-0.05432849,252,-1056,82
2649.105,0.181625,-9.433155,-0.1484405,1.25935,0.1992044,-0.1097222,-0.07882957,266,-988,21
2649.109,0.1855313,-9.44752,-0.07661445,1.187524,0.1992044,-0.1107875,-0.09693906,322,-1029,31
2649.113,0.1894375,-9.442731,-0.01436521,1.206678,0.1981392,-0.1097222,-0.1139833,316,-1069,63
2649.117,0.1933438,-9.404424,0.08619126,1.13964,0.1928129,-0.1022654,-0.1299623,259,-1057,35
2649.121,0.19725,-9.390059,0.1244985,1.096544,0.1949434,-0.09161274,-0.1459412,280,-1024,-2
2649.125,0.2011563,-9.385271,0.1484405,1.067814,0.1928129,-0.07989483,-0.1565939,320,-1014,23
2649.129,0.2050625,-9.418789,0.2394202,1.077391,0.1821602,-0.07456851,-0.1683118,284,-1068,25
2649.133,0.2089688,-9.394847,0.1723825,1.01993,0.1768339,-0.06391587,-0.1768339,292,-1043,80
2649.137,0.212875,-9.390059,0.2106897,1.034295,0.169377,-0.05326322,-0.1885518,260,-1016,54
2649.141,0.2167813,-9.399636,0.1532289,1.005565,0.1597897,-0.04580637,-0.1960087,263,-1003,65
2649.145,0.2206875,-9.457097,0.1723825,0.9959879,0.1502023,-0.03195793,-0.201335,346,-1038,60
2649.148,0.2245938,-9.437943,0.1388637,0.9337386,0.1438107,-0.01704423,-0.205596,278,-1077,59
2649.152,0.2285,-9.44752,0.07661445,0.9720459,0.1299623,-0.002130529,-0.2130529,234,-1053,55
2649.156,0.2324063,-9.562441,0.1101333,0.9481039,0.1235707,0.008522115,-0.2173139,292,-998,24
2649.16,0.2363125,-9.548076,0.1149217,0.9289502,0.1171791,0.0181095,-0.2205097,264,-1013,46
2649.164,0.2402188,-9.624691,0.07661445,0.8858546,0.1107875,0.02876214,-0.2237055,325,-1038,39
2649.168,0.244125,-9.615114,0.009576807,0.8762778,0.1033307,0.04474111,-0.2258361,292,-1040,72
2649.172,0.2480313,-9.672575,-0.01436521,0.7900865,0.09267801,0.0660464,-0.2247708,272,-1032,104
2649.176,0.2519375,-9.77792,-0.04788403,0.7709329,0.08202536,0.08628642,-0.2247708,249,-987,35
2649.18,0.2558438,-9.940725,-0.02873042,0.6991069,0.06498113,0.1022654,-0.221575,338,-1042,26
2649.184,0.25975,-10.08917,-0.009576807,0.7038953,0.04474111,0.1150486,-0.2173139,255,-1054,46
2649.188,0.2636563,-10.11311,-0.02873042,0.6943185,0.02876214,0.1225054,-0.2087918,274,-1044,90
2649.191,0.2675625,-10.18493,-0.04788403,0.6799533,0.02343582,0.1257012,-0.201335,240,-1022,12
2649.195,0.2714688,-10.28549,-0.03830723,0.6799533,0.02237055,0.1278317,-0.1917476,316,-1011,10
2649.199,0.275375,-10.34774,-0.03351882,0.6655881,0.01278317,0.128897,-0.1821602,271,-1059,8
2649.203,0.2792813,-10.51533,0.02394202,0.7565677,-0.002130529,0.1395496,-0.1565939,343,-1032,68
2649.207,0.2831875,-10.70687,0.04788403,0.8379706,-0.01704423,0.1427454,-0.1331581,291,-1035,70
2649.211,0.2870938,-10.85052,0.08140286,0.8714894,-0.02769688,0.1257012,-0.1054612,262,-1015,27
2649.215,0.291,-10.99896,0.1675941,0.9385271,-0.03621899,0.1033307,-0.07882957,295,-1019,70
2649.219,0.2949063,-11.066,0.2777274,0.9097966,-0.05006743,0.08735168,-0.04687164,319,-1045,46
2649.223,0.2988125,-11.12346,0.3782839,0.9528923,-0.06178534,0.0628506,-0.01917476,265,-1074,64
2649.227,0.3027188,-11.15219,0.4740519,1.043872,-0.07456851,0.03408846,0.004261058,240,-1038,47
2649.23,0.306625,-11.17134,0.6464344,1.058237,-0.08735168,0.008522115,0.02343582,264,-1035,6
2649.234,0.3105313,-11.1091,0.7996634,1.173159,-0.1054612,-0.01384844,0.05219796,320,-1016,14
2649.238,0.3144375,-11.05642,0.9433155,1.254562,-0.1182444,-0.04261058,0.07243798,344,-1035,83
2649.242,0.3183438,-11.03727,1.024718,1.383849,-0.1299623,-0.06924219,0.08948221,261,-1031,56
2649.246,0.32225,-11.04685,1.091756,1.393425,-0.144876,-0.08735168,0.1065264,265,-1010,11
2649.25,0.3261563,-10.9415,1.225831,1.517924,-0.1597897,-0.112918,0.1267665,317,-1038,21
2649.254,0.3300625,-10.87925,1.144428,1.527501,-0.1725728,-0.1342233,0.1406149,299,-1063,66
2649.258,0.3339688,-10.89841,1.206678,1.580173,-0.185356,-0.1406149,0.1576591,269,-1051,5
2649.262,0.337875,-10.8601,1.13964,1.666364,-0.1885518,-0.144876,0.1736381,255,-983,65
2649.266,0.3417813,-10.82179,1.11091,1.695095,-0.1896171,-0.1619202,0.1928129,306,-1002,8
2649.27,0.3456875,-10.73081,0.9672575,1.757344,-0.1917476,-0.1672465,0.2087918,304,-1019,16
2649.273,0.3495938,-10.64941,0.7900865,1.776498,-0.1896171,-0.169377,0.2258361,285,-1035,94
2649.277,0.3535,-10.57758,0.6512229,1.8579,-0.1789644,-0.1832255,0.2364887,273,-1059,62
2649.281,0.3574063,-10.45787,0.4548983,1.752556,-0.1704423,-0.1917476,0.2524677,253,-982,15
2649.285,0.3613125,-10.39562,0.3639187,1.819593,-0.1587244,-0.1981392,0.2705772,300,-1044,31
2649.289,0.3652188,-10.30943,0.2585738,1.771709,-0.1502023,-0.201335,0.2790993,312,-1033,6
2649.293,0.369125,-10.22803,0.1771709,1.747767,-0.1320928,-0.2077266,0.2854909,259,-1047,61
2649.297,0.3730313,-10.12268,0.03351882,1.757344,-0.1150486,-0.2034655,0.294013,260,-1037,43
2649.301,0.3769375,-9.998186,-0.1771709,1.699883,-0.07563377,-0.2087918,0.3004046,257,-1014,5
2649.305,0.3808438,-9.931148,-0.2873042,1.699883,-0.04367584,-0.2247708,0.3025351,317,-1058,20
2649.309,0.38475,-9.787496,-0.4070143,1.671153,-0.01171791,-0.2407498,0.3078614,277,-1067,63
2649.312,0.3886563,-9.701305,-0.5267244,1.580173,0.01171791,-0.2482066,0.3131877,263,-1069,58
2649.316,0.3925625,-9.538499,-0.5985504,1.517924,0.04474111,-0.257794,0.3195793,268,-1005,21
2649.32,0.3964688,-9.461885,-0.6320692,1.455675,0.06924219,-0.2609898,0.3217099,292,-1022,25
2649.324,0.400375,-9.332598,-0.6751649,1.403002,0.09906959,-0.2599245,0.3206446,309,-1057,67
2649.328,0.4042813,-9.232042,-0.6943185,1.345541,0.1246359,-0.2567287,0.3217099,293,-1044,46
2649.332,0.4081875,-9.14585,-0.7278373,1.197101,0.1629855,-0.2641856,0.3121225,265,-1000,71
2649.336,0.4120938,-9.08839,-0.7374141,1.154005,0.1928129,-0.2673814,0.3046656,240,-1041,27
2649.34,0.416,-8.987833,-0.7613561,1.077391,0.2098571,-0.2609898,0.294013,274,-1044,48
2649.344,0.4199063,-8.949526,-0.7326257,0.9768343,0.2332929,-0.257794,0.2801645,269,-1054,62
2649.348,0.4238125,-8.810662,-0.7326257,0.9481039,0.257794,-0.2503371,0.2620551,255,-1067,57
2649.352,0.4277188,-8.777143,-0.6991069,0.9241618,0.2759035,-0.2407498,0.2439456,245,-1068,50
2649.355,0.431625,-8.734048,-0.6799533,0.9193734,0.2961435,-0.2364887,0.2237055,279,-985,28
2649.359,0.4355313,-8.724471,-0.6560113,0.8379706,0.3153183,-0.2450108,0.2045308,319,-1059,24
2649.363,0.4394375,-8.762778,-0.5171476,0.8236054,0.3281014,-0.2343582,0.1757686,310,-1076,56
2649.367,0.4433438,-8.777143,-0.4261679,0.8092402,0.3355583,-0.2258361,0.1533981,259,-1037,84
2649.371,0.44725,-8.815451,-0.2873042,0.8236054,0.3440804,-0.2258361,0.1257012,276,-1008,61
2649.375,0.4511563,-8.853758,-0.1484405,0.8858546,0.3494067,-0.2311624,0.09906959,301,-1018,4
2649.379,0.4550625,-9.045294,-0.02394202,0.8858546,0.3462109,-0.2279666,0.07350325,319,-1035,90
2649.383,0.4589688,-9.165004,0.2106897,0.9241618,0.3462109,-0.2300971,0.03408846,268,-1051,55
2649.387,0.462875,-9.251195,0.3734955,0.9768343,0.3483415,-0.2450108,0.007456851,237,-1016,8
2649.391,0.4667813,-9.380482,0.5315128,0.9433155,0.3419499,-0.241815,-0.0181095,298,-1042,20
2649.395,0.4706875,-9.471462,0.6033388,0.9289502,0.3312972,-0.2300971,-0.04261058,309,-1036,47
2649.398,0.4745938,-9.643844,0.7900865,0.9433155,0.3259709,-0.2269013,-0.07456851,319,-1052,30
2649.402,0.4785,-9.734824,0.7852981,0.9337386,0.3174488,-0.2237055,-0.09374327,263,-1046,74
2649.406,0.4824063,-9.80665,0.8810662,0.9481039,0.3036004,-0.2066613,-0.108657,266,-994,21
2649.41,0.4863125,-9.911995,0.9289502,0.9241618,0.2961435,-0.1949434,-0.1182444,279,-1038,-9
2649.414,0.4902188,-10.05086,1.000776,0.9337386,0.2844256,-0.1917476,-0.1267665,286,-1034,91
2649.418,0.494125,-10.10832,1.04866,0.8858546,0.2695119,-0.1821602,-0.1267665,309,-1071,68
2649.422,0.4980313,-10.14184,0.9911995,0.9433155,0.2567287,-0.1672465,-0.1225054,245,-1049,78
2649.426,0.5019375,-10.18015,0.9768343,0.9624691,0.2524677,-0.1619202,-0.112918,305,-1003,-17
2649.43,0.5058438,-10.20888,0.9672575,0.8571242,0.2386192,-0.1576591,-0.09693906,337,-1064,17
2649.434,0.50975,-10.16578,0.8858546,0.7900865,0.2300971,-0.1395496,-0.07989483,297,-1037,35
2649.438,0.5136563,-10.17536,0.842759,0.7996634,0.2247708,-0.1267665,-0.06178534,266,-1050,75
2649.441,0.5175625,-10.18015,0.7852981,0.8044518,0.221575,-0.1257012,-0.04580637,231,-994,-12
2649.445,0.5214688,-10.15142,0.7278373,0.8283938,0.2066613,-0.1214401,-0.01704423,351,-1022,-2
2649.449,0.525375,-10.17536,0.6895301,0.8283938,0.2024002,-0.1118528,0.006391587,337,-1054,59
2649.453,0.5292813,-10.08917,0.6799533,0.7374141,0.1981392,-0.1161138,0.02663161,264,-1045,89
2649.457,0.5331875,-10.0748,0.6224924,0.7182605,0.1896171,-0.1193096,0.04474111,218,-1019,46
2649.461,0.5370938,-10.01255,0.6033388,0.7134721,0.1757686,-0.1075917,0.07563377,221,-987,11
2649.465,0.541,-9.993398,0.5506664,0.6655881,0.1661813,-0.09906959,0.0958738,278,-1051,10
2649.469,0.5449063,-9.959879,0.5985504,0.6799533,0.1619202,-0.1065264,0.1118528,317,-1070,80
2649.473,0.5488125,-9.959879,0.6560113,0.6655881,0.1512675,-0.1118528,0.1299623,271,-1054,57
2649.477,0.5527188,-9.940725,0.6655881,0.6847417,0.144876,-0.1065264,0.1480718,260,-984,8
2649.48,0.556625,-9.892841,0.6272808,0.7086837,0.1406149,-0.0958738,0.1683118,261,-1022,22
2649.484,0.5605313,-9.854534,0.5841852,0.7517793,0.1352886,-0.09480853,0.1778992,313,-1053,5
2649.488,0.5644375,-9.854534,0.6224924,0.8092402,0.1267665,-0.09374327,0.1885518,322,-1071,42
2649.492,0.5683438,-9.921572,0.6272808,0.8044518,0.1235707,-0.08522115,0.1981392,227,-1038,27
2649.496,0.57225,-9.844957,0.5985504,0.7757213,0.1246359,-0.08415589,0.2077266,255,-996,38
2649.5,0.5761563,-9.883264,0.5889736,0.866701,0.1171791,-0.09054748,0.2151834,308,-1043,-43
2649.504,0.5800625,-9.911995,0.5602432,0.8714894,0.1097222,-0.08948221,0.221575,284,-1048,50
2649.508,0.5839688,-9.998186,0.617704,0.9433155,0.1203749,-0.09267801,0.2269013,245,-1063,67
2649.512,0.587875,-9.921572,0.6272808,0.9768343,0.1193096,-0.1033307,0.2290319,237,-1018,-5
2649.516,0.5917813,-9.955091,0.6607997,0.9864111,0.112918,-0.1107875,0.2300971,279,-1013,23
2649.52,0.5956875,-9.921572,0.6512229,1.039084,0.1150486,-0.1097222,0.2332929,292,-1035,56
2649.523,0.5995938,-9.931148,0.6895301,1.015142,0.1107875,-0.1054612,0.2354234,297,-1051,86
2649.527,0.6035,-9.902418,0.7278373,1.010353,0.108657,-0.1033307,0.2386192,218,-1018,63
2649.531,0.6074063,-9.849746,0.7996634,1.058237,0.1065264,-0.108657,0.2396845,244,-1016,19
2649.535,0.6113125,-9.821015,0.7757213,1.072602,0.1107875,-0.112918,0.237554,286,-1020,11
2649.539,0.6152188,-9.77792,0.7661445,1.077391,0.1097222,-0.112918,0.237554,314,-1072,76
2649.543,0.619125,-9.734824,0.7709329,1.101333,0.09906959,-0.108657,0.2386192,251,-1029,47
2649.547,0.6230313,-9.696517,0.7661445,1.082179,0.1022654,-0.112918,0.2364887,236,-1035,88
2649.551,0.6269375,-9.667786,0.7613561,1.091756,0.1022654,-0.1118528,0.2354234,292,-994,26
2649.555,0.6308438,-9.615114,0.7517793,1.096544,0.09374327,-0.1075917,0.2322276,297,-1065,22
2649.559,0.63475,-9.629479,0.7661445,1.04866,0.08948221,-0.1043959,0.2269013,324,-1081,71
2649.562,0.6386563,-9.552865,0.7374141,1.063026,0.09054748,-0.112918,0.221575,252,-988,41
2649.566,0.6425625,-9.552865,0.7182605,1.039084,0.08628642,-0.1150486,0.2151834,255,-1012,-5
2649.57,0.6464688,-9.557653,0.6991069,1.034295,0.0777643,-0.1054612,0.2109224,331,-986,38
2649.574,0.650375,-9.538499,0.7852981,0.9864111,0.07882957,-0.1012001,0.1992044,294,-1066,47
2649.578,0.6542813,-9.485827,0.8283938,1.091756,0.0809601,-0.09906959,0.185356,253,-1061,34
2649.582,0.6581875,-9.543288,0.842759,1.04866,0.07882957,-0.09693906,0.1715076,264,-1000,69
2649.586,0.6620938,-9.524134,0.866701,0.9624691,0.07243798,-0.08948221,0.1597897,233,-1013,21
2649.59,0.666,-9.504981,0.8331822,1.010353,0.07456851,-0.08628642,0.1480718,284,-1070,-3
2649.594,0.6699063,-9.500192,0.9576807,0.9624691,0.08309063,-0.09374327,0.128897,328,-1042,40
2649.598,0.6738125,-9.452308,0.9097966,0.9289502,0.08309063,-0.1001349,0.1161138,225,-1046,57
2649.602,0.6777188,-9.471462,0.8714894,0.9002198,0.08202536,-0.1001349,0.1075917,251,-1008,10
2649.605,0.681625,-9.428366,0.8714894,0.8762778,0.08415589,-0.1001349,0.0958738,289,-973,20
2649.609,0.6855313,-9.428366,0.8619126,0.9337386,0.08735168,-0.1043959,0.08415589,267,-1046,54
2649.613,0.6894375,-9.361328,0.9002198,0.914585,0.08522115,-0.108657,0.07669904,239,-1044,39
2649.617,0.6933438,-9.370905,0.9050082,0.8714894,0.0809601,-0.1107875,0.07030745,260,-1042,83
2649.621,0.69725,-9.323021,0.9385271,0.9337386,0.08628642,-0.1107875,0.06178534,233,-1029,54
2649.625,0.7011563,-9.275137,1.010353,0.9672575,0.08735168,-0.1182444,0.05645902,288,-1065,20
2649.629,0.7050625,-9.169792,1.082179,1.04866,0.0809601,-0.1246359,0.05326322,334,-1048,64
2649.633,0.7089688,-9.169792,1.144428,1.034295,0.07882957,-0.1278317,0.05113269,268,-1057,17
2649.637,0.712875,-9.08839,1.173159,1.039084,0.08309063,-0.1235707,0.0479369,260,-1016,-11
2649.641,0.7167813,-9.02614,1.201889,1.077391,0.07989483,-0.1214401,0.04367584,296,-979,33
2649.645,0.7206875,-8.963891,1.273715,1.039084,0.07243798,-0.1203749,0.04048005,288,-1055,18
2649.648,0.7245938,-8.935161,1.331176,1.082179,0.06924219,-0.1139833,0.0330232,247,-1048,93
2649.652,0.7285,-8.858546,1.340753,1.015142,0.06924219,-0.1043959,0.02876214,256,-1007,100
2649.656,0.7324063,-8.834604,1.398214,1.086968,0.05752428,-0.09054748,0.0181095,241,-999,38
2649.66,0.7363125,-8.825027,1.426944,1.053449,0.04580637,-0.08309063,0.01065264,309,-1078,33
2649.664,0.7402188,-8.772355,1.450886,0.9672575,0.04367584,-0.07243798,0.003195793,302,-1050,40
2649.668,0.744125,-8.781932,1.493982,0.9241618,0.03941478,-0.05113269,-0.003195793,261,-1028,51
2649.672,0.7480313,-8.762778,1.522712,0.8140286,0.03089267,-0.03515373,-0.01171791,253,-1013,13
2649.676,0.7519375,-8.820239,1.431733,0.7661445,0.02130529,-0.02024002,-0.02237055,287,-1008,16
2649.68,0.7558438,-8.825027,1.374272,0.6847417,0.0181095,-0.01384844,-0.03195793,288,-1041,15
2649.684,0.75975,-8.858546,1.364695,0.6560113,0.01065264,0,-0.03941478,287,-1052,64
2649.688,0.7636563,-8.920795,1.331176,0.5889736,-0.002130529,0.01704423,-0.04900216,229,-1035,66
2649.691,0.7675625,-9.02614,1.273715,0.5410896,-0.01171791,0.02876214,-0.05752428,269,-998,36
2649.695,0.7714688,-9.136274,1.197101,0.4644751,-0.01597897,0.03941478,-0.0628506,290,-1025,18
2649.699,0.775375,-9.275137,1.187524,0.4165911,-0.0181095,0.05645902,-0.07030745,276,-1062,72
2649.703,0.7792813,-9.346963,1.154005,0.2106897,-0.02663161,0.0777643,-0.07350325,254,-1092,55
2649.707,0.7831875,-9.543288,1.149217,0.1101333,-0.02876214,0.08628642,-0.0809601,238,-1010,-19
2649.711,0.7870938,-9.643844,1.120486,0.1149217,-0.03195793,0.08309063,-0.08735168,273,-962,33
2649.715,0.791,-9.753978,1.072602,0,-0.0330232,0.0809601,-0.09267801,257,-1085,31
2649.719,0.7949063,-9.830592,1.120486,0.004788403,-0.03515373,0.0777643,-0.0958738,319,-1059,62
2649.723,0.7988125,-9.916783,1.115698,-0.1723825,-0.03195793,0.07669904,-0.1001349,274,-1007,88
2649.727,0.8027188,-9.979033,1.053449,-0.1580173,-0.02769688,0.07137272,-0.1001349,237,-1044,75
2649.73,0.806625,-10.01734,1.043872,-0.1005565,-0.02876214,0.06498113,-0.1001349,258,-990,17
2649.734,0.8105313,-10.05565,1.010353,-0.225055,-0.03089267,0.06072007,-0.1001349,284,-1058,64
2649.738,0.8144375,-10.01734,0.9768343,-0.1915361,-0.02876214,0.05858954,-0.09800433,234,-1052,91
2649.742,0.8183438,-10.00776,0.9720459,-0.1675941,-0.02769688,0.05113269,-0.09906959,244,-1037,76
2649.746,0.82225,-9.940725,0.9720459,-0.1580173,-0.03089267,0.0479369,-0.09906959,310,-1024,2
2649.75,0.8261563,-9.931148,0.9337386,-0.08619126,-0.03941478,0.05219796,-0.1001349,276,-1068,53
2649.754,0.8300625,-9.758766,0.8762778,-0.07182605,-0.04261058,0.05752428,-0.09906959,304,-1069,62
2649.758,0.8339688,-9.71567,0.8475474,-0.1915361,-0.04687164,0.05965481,-0.1033307,268,-1035,33
2649.762,0.837875,-9.619902,0.8331822,-0.1628057,-0.05219796,0.0628506,-0.1054612,262,-1024,56
2649.766,0.8417813,-9.605537,0.8619126,-0.1867477,-0.0660464,0.07350325,-0.1097222,293,-1029,18
2649.77,0.8456875,-9.56723,0.9002198,-0.1963245,-0.07882957,0.08735168,-0.1139833,283,-1062,60
2649.773,0.8495938,-9.586383,0.9624691,-0.1436521,-0.08948221,0.08628642,-0.1257012,259,-1058,87
2649.777,0.8535,-9.600749,0.9864111,-0.1197101,-0.09267801,0.08309063,-0.1374191,207,-978,77
2649.781,0.8574063,-9.572018,0.9289502,-0.1484405,-0.09267801,0.09054748,-0.1470065,257,-1009,8
2649.785,0.8613125,-9.615114,0.9193734,-0.1005565,-0.09800433,0.09906959,-0.1597897,313,-1068,36
2649.789,0.8652188,-9.648633,0.8858546,-0.09097966,-0.09906959,0.1043959,-0.1747034,302,-1040,69
2649.793,0.869125,-9.610325,0.9097966,-0.1292869,-0.0958738,0.1075917,-0.1821602,212,-1073,74
2649.797,0.8730313,-9.600749,0.9050082,-0.248997,-0.09480853,0.1139833,-0.1896171,268,-1054,41
2649.801,0.8769375,-9.543288,0.9050082,-0.2777274,-0.1001349,0.1310275,-0.1949434,328,-1019,4
2649.805,0.8808438,-9.605537,0.9193734,-0.2873042,-0.1054612,0.1470065,-0.2034655,294,-1089,24
2649.809,0.88475,-9.591172,0.9337386,-0.3256114,-0.1065264,0.1544633,-0.2077266,239,-1081,58
2649.812,0.8886563,-9.639056,0.9385271,-0.3351882,-0.1075917,0.1523328,-0.2109224,231,-1015,61
2649.816,0.8925625,-9.701305,0.9576807,-0.3495534,-0.1065264,0.149137,-0.2183792,217,-993,11
2649.82,0.8964688,-9.792285,0.866701,-0.4213795,-0.1171791,0.1523328,-0.2205097,266,-1091,9
2649.824,0.900375,-9.955091,0.8954314,-0.3782839,-0.1267665,0.149137,-0.2237055,339,-1038,8
2649.828,0.9042813,-10.0748,0.914585,-0.4596867,-0.1299623,0.1416802,-0.2269013,236,-1051,49
2649.832,0.9081875,-10.16578,0.9241618,-0.4548983,-0.1342233,0.128897,-0.2269013,302,-1036,-4
2649.836,0.9120938,-10.29507,0.9624691,-0.5027823,-0.1374191,0.1182444,-0.2279666,321,-993,24
2649.84,0.916,-10.40041,1.015142,-0.56982,-0.144876,0.1193096,-0.2226403,307,-1094,32
2649.844,0.9199063,-10.45787,1.096544,-0.6129156,-0.1555286,0.1171791,-0.2173139,303,-1074,87
2649.848,0.9238125,-10.50097,1.067814,-0.7038953,-0.1533981,0.1118528,-0.2130529,242,-1016,78
2649.852,0.9277188,-10.63983,1.072602,-0.6368576,-0.1512675,0.09693906,-0.2045308,257,-1012,46
2649.855,0.931625,-10.67814,1.082179,-0.7326257,-0.1480718,0.09054748,-0.1906823,292,-1066,3
2649.859,0.9355313,-10.6542,1.039084,-0.7613561,-0.1555286,0.08522115,-0.1800297,271,-1070,66
2649.863,0.9394375,-10.70208,1.024718,-0.8331822,-0.1608549,0.08309063,-0.1672465,228,-1085,51
2649.867,0.9433438,-10.70208,1.010353,-0.8714894,-0.1672465,0.08948221,-0.1480718,259,-1003,41
2649.871,0.94725,-10.67335,1.039084,-0.8714894,-0.165116,0.09161274,-0.1363538,336,-1023,50
2649.875,0.9511563,-10.57758,1.029507,-0.866701,-0.169377,0.08309063,-0.1246359,274,-1045,30
2649.879,0.9550625,-10.45787,1.034295,-0.9816227,-0.1661813,0.08415589,-0.1171791,295,-1055,77
2649.883,0.9589688,-10.37647,0.9481039,-0.9864111,-0.1619202,0.0958738,-0.1118528,226,-1017,82
2649.887,0.962875,-10.38126,0.8858546,-1.096544,-0.1640507,0.1150486,-0.09906959,252,-1010,44
2649.891,0.9667813,-10.37168,0.818817,-1.13964,-0.1683118,0.1193096,-0.09054748,283,-1068,26
2649.895,0.9706875,-10.22324,0.8140286,-1.225831,-0.165116,0.1171791,-0.08522115,319,-1049,63
2649.898,0.9745938,-10.20409,0.7757213,-1.345541,-0.1640507,0.1182444,-0.07882957,268,-1053,54
2649.902,0.9785,-10.06522,0.7565677,-1.474828,-0.1608549,0.1310275,-0.06924219,272,-991,13
2649.906,0.9824063,-9.974244,0.7852981,-1.527501,-0.1608549,0.1395496,-0.0660464,212,-1064,44
2649.91,0.9863125,-9.921572,0.818817,-1.656788,-0.1587244,0.1544633,-0.05965481,290,-1076,-18
2649.914,0.9902188,-9.811438,0.8810662,-1.699883,-0.1587244,0.1640507,-0.05645902,296,-1042,81
2649.918,0.994125,-9.864111,0.9433155,-1.690306,-0.1512675,0.1619202,-0.05326322,253,-1016,71
2649.922,0.9980313,-9.782708,1.01993,-1.900996,-0.1502023,0.1640507,-0.04687164,231,-986,18
2649.926,1.001938,-9.739612,1.067814,-2.020706,-0.1544633,0.1704423,-0.04048005,296,-1030,13
2649.93,1.005844,-9.667786,1.115698,-2.197877,-0.1576591,0.1789644,-0.03728426,318,-1063,73
2649.934,1.00975,-9.720459,1.106121,-1.886631,-0.1661813,0.1800297,-0.03195793,265,-1025,76
2649.938,1.013656,-9.682152,1.04866,-1.723825,-0.1704423,0.1747034,-0.02663161,235,-1019,59
2649.941,1.017563,-9.710882,1.029507,-1.685518,-0.1747034,0.181095,-0.02343582,242,-1035,-2
2649.945,1.021469,-9.763554,0.9911995,-1.671153,-0.1842907,0.1992044,-0.01597897,278,-1112,37
2649.949,1.025375,-9.873688,1.01993,-1.446098,-0.1896171,0.2300971,0,283,-1090,112
2649.953,1.029281,-9.979033,0.9576807,-0.9097966,-0.1789644,0.2471413,0.01171791,287,-1095,60
2649.957,1.033188,-10.18015,0.9528923,-0.09576807,-0.1587244,0.2599245,0.0298274,243,-1004,9
2649.961,1.037094,-10.42914,0.8858546,1.067814,-0.1267665,0.2663161,0.05219796,291,-1054,40
2649.965,1.041,-10.88883,0.7469909,2.264915,-0.07669904,0.2918825,0.08415589,277,-1048,65
2649.969,1.044906,-11.25754,0.4836287,2.087744,0.008522115,0.370712,0.1512675,267,-1082,30
2649.973,1.048813,-11.78426,0.1292869,1.403002,0.04580637,0.44315,0.2290319,271,-1018,67
2649.977,1.052719,-12.5121,-0.4213795,1.268927,0.07243798,0.4729774,0.314253,242,-1000,26
2649.98,1.056625,-13.16332,-1.015142,1.312023,0.1075917,0.4367584,0.390952,282,-1063,51
2649.984,1.060531,-13.65653,-1.848324,0.8619126,0.1565939,0.3472762,0.4687164,311,-1076,81
2649.988,1.064438,-13.69962,-2.446874,0.3782839,0.1885518,0.2929477,0.5145227,273,-1102,107
2649.992,1.068344,-13.68047,-2.887407,0.1771709,0.2119876,0.2673814,0.556068,258,-1038,23
2649.996,1.07225,-13.64695,-3.308787,0.1963245,0.2460761,0.2514024,0.5837649,277,-1022,3
2650,1.076156,-13.46978,-3.227384,0.3016694,0.3451457,0.2300971,0.5912218,305,-1093,13
2650.004,1.080063,-13.30218,-2.882619,0.3160346,0.4175837,0.2098571,0.5699165,307,-1064,111
2650.008,1.083969,-13.12023,-2.27928,0.1867477,0.4740427,0.181095,0.5326322,246,-1040,47
2650.012,1.087875,-12.94784,-1.556231,0.06703765,0.499609,0.1523328,0.4857606,247,-1016,5
2650.016,1.091781,-12.66533,-0.6799533,-0.06224924,0.515588,0.1161138,0.4165184,261,-1042,27
2650.02,1.095688,-12.3876,-0.1484405,-0.2298434,0.4932174,0.08202536,0.3472762,279,-1023,79
2650.023,1.099594,-11.99016,0.3974375,-0.296881,0.4420847,0.06711166,0.2631203,231,-1057,103
2650.027,1.1035,-11.58315,0.7996634,-0.2681506,0.3813647,0.06391587,0.1736381,273,-1016,57
2650.031,1.107406,-11.23359,1.474828,-0.1101333,0.3004046,0.07350325,0.04154531,301,-958,52
2650.035,1.111313,-11.10431,2.035071,0.02394202,0.2332929,0.07669904,-0.05752428,301,-1071,1
2650.039,1.115219,-11.05163,2.595315,0.3639187,0.1704423,0.08628642,-0.1459412,320,-1057,86
2650.043,1.119125,-11.17613,3.131616,0.7134721,0.1182444,0.09693906,-0.2194445,240,-1017,91
2650.047,1.123031,-11.30542,3.754108,1.187524,0.06391587,0.1043959,-0.2897519,244,-1037,15
2650.051,1.126938,-11.50174,4.07972,1.656788,0.03408846,0.1022654,-0.3163835,287,-1051,46
2650.055,1.130844,-11.61188,4.223372,2.102109,0,0.1054612,-0.3217099,305,-1061,73
2650.059,1.13475,-11.6454,4.122815,2.456451,-0.03089267,0.1012001,-0.3153183,259,-1071,51
2650.062,1.138656,-11.47301,3.955221,2.834735,-0.06391587,0.09374327,-0.3036004,237,-996,63
2650.066,1.142563,-11.1091,3.552995,3.107674,-0.1107875,0.08202536,-0.2812298,318,-1001,3
2650.07,1.146469,-10.61589,3.246537,3.342306,-0.1384844,0.07563377,-0.2695119,293,-1059,23
2650.074,1.150375,-10.05565,2.916138,3.481169,-0.1704423,0.0777643,-0.2631203,273,-1058,70
2650.078,1.154281,-9.466673,2.576161,3.643975,-0.2045308,0.08415589,-0.2567287,262,-1001,69
2650.082,1.158188,-8.714894,2.1883,3.940856,-0.2354234,0.1001349,-0.2428803,245,-1010,46
2650.086,1.162094,-8.259996,1.891419,4.122815,-0.2524677,0.09800433,-0.2237055,305,-1004,36
2650.09,1.166,-8.025364,1.474828,4.10845,-0.2609898,0.08522115,-0.1992044,279,-1072,89
2650.094,1.169906,-7.852981,0.9624691,4.165911,-0.2716424,0.07563377,-0.1629855,266,-1101,89
2650.098,1.173813,-7.709329,0.2585738,4.094085,-0.2897519,0.0660464,-0.1075917,256,-1025,65
2650.102,1.177719,-7.608773,-0.3303998,3.931279,-0.3121225,0.07563377,-0.0628506,246,-1018,14
2650.105,1.181625,-7.465121,-0.8140286,3.787627,-0.3270362,0.08841695,-0.02130529,310,-1088,43
2650.109,1.185531,-7.345411,-1.201889,3.667917,-0.3259709,0.09693906,0.01704423,282,-1061,85
2650.113,1.189438,-7.31668,-1.752556,3.524265,-0.3131877,0.1022654,0.0628506,256,-1072,66
2650.117,1.193344,-7.412448,-1.963245,3.442862,-0.298274,0.09906959,0.09161274,212,-1016,27
2650.121,1.19725,-7.551312,-2.149993,3.270479,-0.2833603,0.09906959,0.1193096,286,-1076,46
2650.125,1.201156,-7.843405,-2.260126,3.155558,-0.2684466,0.1065264,0.1523328,301,-1052,80
2650.129,1.205063,-8.312668,-2.379836,3.016694,-0.2492719,0.1065264,0.1938781,273,-1094,41
2650.133,1.208969,-8.772355,-2.288857,2.96881,-0.2354234,0.1001349,0.2247708,250,-1032,101
2650.137,1.212875,-9.255984,-2.264915,2.863465,-0.2183792,0.09054748,0.2535329,260,-1006,20
2650.141,1.216781,-9.653421,-2.140416,2.734178,-0.1970739,0.08522115,0.2790993,255,-1090,34
2650.145,1.220688,-10.14184,-1.819593,2.614468,-0.1704423,0.0809601,0.2993393,294,-1060,67
2650.148,1.224594,-10.38126,-1.580173,2.561796,-0.1533981,0.0809601,0.3057309,246,-1069,65
2650.152,1.2285,-10.6111,-1.25935,2.42772,-0.1320928,0.07669904,0.2993393,241,-1034,15
2650.156,1.232406,-10.76912,-0.9672575,2.341529,-0.1161138,0.0628506,0.2865561,297,-1090,-15
2650.16,1.236313,-10.96066,-0.6368576,2.255338,-0.1022654,0.05752428,0.2684466,283,-1071,42
2650.164,1.240219,-10.93671,-0.2011129,2.06859,-0.08735168,0.06817692,0.2354234,271,-1113,93
2650.168,1.244125,-11.01812,0.08619126,2.073379,-0.05752428,0.06072007,0.2045308,282,-1059,86
2650.172,1.248031,-11.01812,0.4022259,2.054225,-0.04580637,0.05219796,0.1683118,221,-1046,5
2650.176,1.251938,-10.88404,0.593762,2.001553,-0.03089267,0.04474111,0.1278317,304,-1051,33
2650.18,1.255844,-10.74997,0.8475474,1.934515,-0.00958738,0.03941478,0.0628506,330,-1087,75
2650.184,1.25975,-10.69729,1.01993,1.896208,0.001065264,0.03515373,0.01278317,268,-1095,84
2650.188,1.263656,-10.59195,1.096544,1.872266,0.01278317,0.02663161,-0.03728426,208,-1015,34
2650.191,1.267563,-10.4483,1.192312,1.867477,0.02130529,0.01597897,-0.08522115,294,-1016,56
2650.195,1.271469,-10.30464,1.192312,1.73819,0.003195793,0.006391587,-0.144876,269,-1054,21
2650.199,1.275375,-10.1179,1.211466,1.728614,0.002130529,-0.003195793,-0.1864213,263,-1048,65
2650.203,1.279281,-10.1179,1.177947,1.742979,0.001065264,-0.008522115,-0.2151834,267,-1052,133
2650.207,1.283188,-10.04607,1.13964,1.73819,-0.004261058,-0.02237055,-0.2407498,222,-1003,21
2650.211,1.287094,-9.878476,1.029507,1.632846,-0.02130529,-0.04261058,-0.2716424,269,-993,11
2650.215,1.291,-9.854534,0.9050082,1.575385,-0.03728426,-0.05645902,-0.2865561,321,-1059,55
2650.219,1.294906,-9.80665,0.7805097,1.546654,-0.0479369,-0.0628506,-0.294013,239,-1071,118
2650.223,1.298813,-9.773131,0.641646,1.426944,-0.06391587,-0.06924219,-0.2972088,233,-1025,63
2650.227,1.302719,-9.696517,0.5410896,1.364695,-0.08841695,-0.07030745,-0.2961435,286,-1004,37
2650.23,1.306625,-9.639056,0.4692635,1.307234,-0.1065264,-0.07882957,-0.2876214,284,-1053,27
2650.234,1.310531,-9.543288,0.4261679,1.268927,-0.1193096,-0.08309063,-0.273773,283,-1055,16
2650.238,1.314438,-9.437943,0.3351882,1.292869,-0.1342233,-0.08522115,-0.2599245,220,-1011,59
2650.242,1.318344,-9.32781,0.2537854,1.244985,-0.1427454,-0.07989483,-0.237554,250,-1029,39
2650.246,1.32225,-9.318233,0.1580173,1.225831,-0.1502023,-0.07989483,-0.221575,311,-1060,29
2650.25,1.326156,-9.284714,0.05746084,1.197101,-0.1544633,-0.08309063,-0.2024002,362,-1040,70
2650.254,1.330063,-9.232042,0,1.106121,-0.1640507,-0.08415589,-0.185356,259,-1091,82
2650.258,1.333969,-9.23683,-0.1388637,1.120486,-0.1619202,-0.08522115,-0.1661813,255,-995,35
2650.262,1.337875,-9.126697,-0.225055,1.043872,-0.1597897,-0.09054748,-0.1438107,243,-1020,48
2650.266,1.341781,-9.169792,-0.2825158,1.000776,-0.1597897,-0.09374327,-0.128897,298,-1048,20
2650.27,1.345688,-9.059659,-0.344765,0.9816227,-0.1576591,-0.0958738,-0.1171791,287,-1068,53
2650.273,1.349594,-8.987833,-0.3591302,0.9864111,-0.1427454,-0.1012001,-0.1097222,254,-1038,44
2650.277,1.3535,-8.935161,-0.3782839,0.9241618,-0.128897,-0.108657,-0.0958738,266,-1030,61
2650.281,1.357406,-8.767566,-0.3734955,0.9002198,-0.1320928,-0.1022654,-0.08948221,257,-1022,28
2650.285,1.361313,-8.748413,-0.5027823,0.8858546,-0.1257012,-0.1054612,-0.08948221,310,-1066,47
2650.289,1.365219,-8.66701,-0.4261679,0.8714894,-0.1012001,-0.1225054,-0.09054748,258,-1034,92
2650.293,1.369125,-8.513781,-0.3351882,0.8283938,-0.08415589,-0.1374191,-0.09374327,226,-1049,51
2650.297,1.373031,-8.451532,-0.296881,0.7709329,-0.0777643,-0.1416802,-0.09906959,278,-1057,-1
2650.301,1.376938,-8.45632,-0.2394202,0.7661445,-0.07243798,-0.1416802,-0.1033307,305,-1063,38
2650.305,1.380844,-8.327033,-0.2154781,0.7326257,-0.06924219,-0.1406149,-0.1118528,258,-1038,50
2650.309,1.38475,-8.212112,-0.1580173,0.7086837,-0.05326322,-0.1384844,-0.1235707,267,-1080,69
2650.312,1.388656,-8.173804,-0.07661445,0.7230489,-0.04261058,-0.1278317,-0.1310275,236,-1008,17
2650.316,1.392563,-8.130709,-0.02394202,0.6464344,-0.04048005,-0.112918,-0.1374191,273,-1025,23
2650.32,1.396469,-8.087613,0.01915361,0.6607997,-0.04261058,-0.09693906,-0.144876,285,-1080,39
2650.324,1.400375,-8.121132,0.03830723,0.7038953,-0.02876214,-0.09374327,-0.1576591,259,-1048,79
2650.328,1.404281,-8.159439,0.1388637,0.6799533,-0.0181095,-0.0958738,-0.165116,272,-1029,55
2650.332,1.408188,-8.183381,0.1675941,0.593762,-0.01065264,-0.0958738,-0.1672465,227,-1011,28
2650.336,1.412094,-8.197746,0.1532289,0.56982,-0.01278317,-0.08841695,-0.1715076,292,-1055,79
2650.34,1.416,-8.384494,0.05746084,0.5410896,-0.01597897,-0.0628506,-0.1725728,265,-1055,75
2650.344,1.419906,-8.489839,0.08619126,0.6033388,-0.01597897,-0.05219796,-0.1683118,222,-1087,68
2650.348,1.423813,-8.643068,0.03351882,0.6224924,-0.00958738,-0.05432849,-0.1683118,255,-1056,-3
2650.352,1.427719,-8.839393,0.004788403,0.5746084,-0.004261058,-0.0660464,-0.1661813,270,-1044,15
2650.355,1.431625,-8.987833,-0.07661445,0.5027823,-0.005326322,-0.0809601,-0.1629855,310,-1084,67
2650.359,1.435531,-9.150639,-0.1053449,0.4118027,-0.00958738,-0.08841695,-0.1597897,322,-1096,45
2650.363,1.439438,-9.217676,-0.1244985,0.3543418,-0.01171791,-0.09054748,-0.1587244,237,-1014,55
2650.367,1.443344,-9.361328,-0.1340753,0.3303998,-0.01704423,-0.09161274,-0.1523328,219,-1044,25
2650.371,1.44725,-9.394847,-0.1053449,0.3351882,-0.0181095,-0.09693906,-0.1480718,326,-1074,9
2650.375,1.451156,-9.519346,-0.1149217,0.2059013,-0.01597897,-0.1075917,-0.1470065,301,-1083,61
2650.379,1.455063,-9.490615,-0.06703765,0.1675941,-0.01917476,-0.1161138,-0.1427454,198,-1064,72
2650.383,1.458969,-9.543288,-0.08619126,0.08140286,-0.02663161,-0.1246359,-0.1352886,271,-1024,29
2650.387,1.462875,-9.481039,-0.03830723,0.04309563,-0.03408846,-0.1299623,-0.1278317,288,-1048,0
2650.391,1.466781,-9.44752,-0.05746084,0.01436521,-0.03834952,-0.1331581,-0.1193096,281,-1067,44
2650.395,1.470688,-9.342175,0.05267244,-0.04309563,-0.03728426,-0.1395496,-0.1118528,299,-1061,83
2650.398,1.474594,-9.275137,0.04309563,-0.07182605,-0.04367584,-0.1459412,-0.1043959,232,-1031,48
2650.402,1.4785,-9.246407,0.02873042,-0.1723825,-0.0479369,-0.1512675,-0.09693906,263,-1022,17
2650.406,1.482406,-9.121908,0.08619126,-0.2059013,-0.05219796,-0.1512675,-0.08628642,278,-1041,14
2650.41,1.486313,-9.02614,0.2298434,-0.2585738,-0.05858954,-0.1470065,-0.0777643,295,-1062,111
2650.414,1.490219,-9.050082,0.2777274,-0.3112462,-0.0628506,-0.1459412,-0.06817692,301,-1084,44
2650.418,1.494125,-8.973468,0.3734955,-0.320823,-0.06924219,-0.1480718,-0.05858954,285,-1011,-1
2650.422,1.498031,-8.959103,0.4022259,-0.3543418,-0.07137272,-0.1640507,-0.04154531,293,-1018,28
2650.426,1.501938,-8.901642,0.3782839,-0.4022259,-0.07137272,-0.1725728,-0.03408846,265,-1091,7
2650.43,1.505844,-8.892065,0.4118027,-0.3734955,-0.06817692,-0.1768339,-0.02237055,274,-1077,76
2650.434,1.50975,-8.863335,0.4165911,-0.3830723,-0.06711166,-0.1747034,-0.00958738,221,-991,83
2650.438,1.513656,-8.839393,0.3687071,-0.3734955,-0.06498113,-0.1672465,0.00958738,238,-1006,38
2650.441,1.517563,-8.844181,0.2777274,-0.3495534,-0.06072007,-0.1640507,0.02024002,259,-1014,9
2650.445,1.521469,-8.858546,0.2011129,-0.4548983,-0.05219796,-0.1704423,0.03195793,275,-1093,69
2650.449,1.525375,-8.796297,0.1675941,-0.4501099,-0.04580637,-0.1768339,0.04048005,295,-1042,63
2650.453,1.529281,-8.753201,0.1723825,-0.4501099,-0.04261058,-0.1800297,0.04580637,268,-1030,67
2650.457,1.533188,-8.748413,0.1819593,-0.4453215,-0.02876214,-0.1747034,0.05432849,246,-1011,26
2650.461,1.537094,-8.719682,0.08619126,-0.3495534,-0.02450108,-0.1619202,0.0628506,316,-1109,27
2650.465,1.541,-8.609549,0.1436521,-0.3926491,-0.01704423,-0.149137,0.06924219,275,-1062,80
2650.469,1.544906,-8.523358,0.01436521,-0.4118027,-0.00958738,-0.1320928,0.07882957,243,-1080,59
2650.473,1.548813,-8.461109,-0.02873042,-0.4596867,0.003195793,-0.1033307,0.09054748,257,-1027,24
2650.477,1.552719,-8.370129,-0.01915361,-0.5506664,0.0149137,-0.08309063,0.1012001,306,-1017,40
2650.48,1.556625,-8.331822,-0.1436521,-0.5602432,0.02450108,-0.0660464,0.1065264,272,-1055,74
2650.484,1.560531,-8.212112,-0.2585738,-0.641646,0.03408846,-0.0479369,0.1107875,254,-1073,81
2650.488,1.564438,-8.169016,-0.3926491,-0.6799533,0.04474111,-0.02237055,0.1097222,243,-1041,106
2650.492,1.568344,-8.09719,-0.4405331,-0.6799533,0.05326322,0.003195793,0.1107875,231,-1031,40
2650.496,1.57225,-7.987057,-0.5650316,-0.6943185,0.05752428,0.02769688,0.1054612,271,-1078,54
2650.5,1.576156,-7.929596,-0.641646,-0.7757213,0.0660464,0.05432849,0.1043959,282,-1100,95
2650.504,1.580063,-7.833828,-0.7374141,-0.9337386,0.07243798,0.1054612,0.09906959,262,-1066,67
2650.508,1.583969,-7.757213,-0.8092402,-1.029507,0.07243798,0.1523328,0.09161274,229,-1023,32
2650.512,1.587875,-7.73806,-0.8954314,-1.134852,0.07137272,0.1906823,0.08628642,291,-1043,3
2650.516,1.591781,-7.76679,-0.9864111,-1.206678,0.06711166,0.2247708,0.0777643,298,-1084,19
2650.52,1.595688,-7.85777,-1.086968,-1.144428,0.0628506,0.2567287,0.06391587,285,-1122,41
2650.523,1.599594,-7.905654,-1.106121,-1.197101,0.0628506,0.2865561,0.05219796,275,-1031,70
2650.527,1.6035,-8.030152,-1.13964,-1.182736,0.06072007,0.3206446,0.04154531,253,-1022,6
2650.531,1.607406,-8.078036,-1.096544,-1.149217,0.0628506,0.3494067,0.03515373,300,-1088,40
2650.535,1.611313,-8.312668,-1.101333,-1.010353,0.06178534,0.386691,0.02450108,294,-1094,54
2650.539,1.615219,-8.537723,-1.072602,-0.8331822,0.05539375,0.4058658,0.01171791,279,-1034,105
2650.543,1.619125,-8.710106,-1.058237,-0.7326257,0.05219796,0.4175837,0.002130529,235,-1001,59
2650.547,1.623031,-9.011775,-1.029507,-0.6607997,0.05326322,0.4261058,-0.008522115,263,-1003,3
2650.551,1.626938,-9.437943,-0.9576807,-0.4213795,0.05858954,0.427171,-0.02130529,272,-1064,2
2650.555,1.630844,-9.648633,-0.9481039,-0.2537854,0.06178534,0.4197142,-0.04261058,276,-1091,55
2650.559,1.63475,-9.945514,-0.866701,-0.2298434,0.06817692,0.4090615,-0.05432849,232,-1030,51
2650.562,1.638656,-10.1562,-0.7757213,-0.320823,0.07243798,0.3973436,-0.07137272,288,-1026,19
2650.566,1.642563,-10.40041,-0.6703765,-0.3303998,0.07243798,0.3898868,-0.08841695,267,-1020,32
2650.57,1.646469,-10.70208,-0.6081272,-0.1867477,0.07456851,0.3760383,-0.1139833,314,-1042,85
2650.574,1.650375,-10.88404,-0.5793968,-0.2202666,0.07669904,0.3579289,-0.128897,232,-1060,89
2650.578,1.654281,-11.07558,-0.5123592,-0.225055,0.08309063,0.3355583,-0.1470065,232,-1033,88
2650.582,1.658188,-11.31979,-0.4309563,-0.1867477,0.08735168,0.3195793,-0.1640507,274,-1066,4
2650.586,1.662094,-11.56878,-0.4309563,-0.1771709,0.08415589,0.2918825,-0.1874865,291,-1061,42
2650.59,1.666,-11.75074,-0.4118027,-0.2633622,0.07989483,0.2727077,-0.2087918,313,-1099,49
2650.594,1.669906,-11.96622,-0.4644751,-0.272939,0.07563377,0.2514024,-0.2258361,255,-1047,88
2650.598,1.673813,-12.16733,-0.5171476,-0.3639187,0.07137272,0.2279666,-0.241815,235,-1012,48
2650.602,1.677719,-12.43548,-0.5554548,-0.4884171,0.05113269,0.1938781,-0.2631203,264,-1044,53
2650.605,1.681625,-12.55519,-0.6320692,-0.6751649,0.04048005,0.1661813,-0.273773,297,-1087,66
2650.609,1.685531,-12.70363,-0.7134721,-0.8140286,0.02343582,0.1395496,-0.2854909,267,-1069,68
2650.613,1.689438,-12.75152,-0.7134721,-1.082179,0.007456851,0.1225054,-0.2908172,247,-1002,68
2650.617,1.693344,-12.65575,-0.7134721,-1.340753,-0.008522115,0.1054612,-0.2929477,250,-1018,54
2650.621,1.69725,-12.68927,-0.6847417,-1.393425,-0.02876214,0.1012001,-0.2961435,273,-1104,8
2650.625,1.701156,-12.70363,-0.6560113,-1.522712,-0.0479369,0.08948221,-0.2993393,261,-1092,58
2650.629,1.705063,-12.69885,-0.6512229,-1.637634,-0.07243798,0.0777643,-0.309992,232,-1088,84
2650.633,1.708969,-12.65575,-0.6129156,-1.805228,-0.09161274,0.04580637,-0.3270362,263,-1010,19
2650.637,1.712875,-12.66533,-0.6799533,-1.982399,-0.0958738,0.02876214,-0.3419499,281,-1039,39
2650.641,1.716781,-12.64617,-0.7757213,-2.006341,-0.09906959,0.0181095,-0.3621899,317,-1127,119
2650.645,1.720688,-12.54083,-0.8810662,-2.03986,-0.1012001,0.01278317,-0.3749731,237,-1101,91
2650.648,1.724594,-12.50252,-0.9720459,-1.982399,-0.1033307,0.01704423,-0.3834952,233,-1013,94
2650.652,1.7285,-12.41154,-1.149217,-1.714248,-0.1043959,0.03408846,-0.3845605,228,-1033,61
2650.656,1.732406,-12.44506,-1.369483,-1.690306,-0.1203749,0.05645902,-0.386691,292,-1077,20
2650.66,1.736313,-12.46421,-1.541866,-1.474828,-0.1310275,0.1012001,-0.3856257,251,-1065,59
2650.664,1.740219,-12.52167,-1.656788,-1.16837,-0.1395496,0.128897,-0.3845605,247,-1075,96
2650.668,1.744125,-12.66533,-1.61848,-0.5793968,-0.1512675,0.1502023,-0.3898868,249,-1008,42
2650.672,1.748031,-12.8425,-1.541866,-0.1053449,-0.1715076,0.1565939,-0.3973436,275,-1012,63
2650.676,1.751938,-12.89038,-1.35033,0.03351882,-0.1970739,0.1821602,-0.4079963,263,-1094,55
2650.68,1.755844,-13.08671,-1.125275,-0.03830723,-0.2183792,0.2205097,-0.4261058,301,-1080,82
2650.684,1.75975,-13.38838,-0.8523358,-0.2633622,-0.2098571,0.2854909,-0.4612595,276,-1020,67
2650.688,1.763656,-13.59907,-0.545878,-0.2011129,-0.185356,0.314253,-0.4889564,270,-1065,20
2650.691,1.767563,-13.78102,-0.2681506,-0.1149217,-0.1768339,0.2993393,-0.519849,329,-1092,48
2650.695,1.771469,-13.61343,0.04788403,-0.2825158,-0.1864213,0.2471413,-0.5432849,294,-1098,82
2650.699,1.775375,-13.21599,0.3830723,-0.4405331,-0.1992044,0.169377,-0.5699165,222,-1099,88
2650.703,1.779281,-12.97178,0.5985504,-0.4884171,-0.205596,0.1246359,-0.5837649,238,-1047,20
2650.707,1.783188,-12.67012,0.6081272,-0.4979939,-0.2141182,0.08202536,-0.5944176,297,-1053,9
2650.711,1.787094,-12.44027,0.5075708,-0.5650316,-0.2141182,0.0628506,-0.5933523,326,-1077,33
2650.715,1.791,-12.21522,0.1915361,-0.4405331,-0.1981392,0.06711166,-0.5773733,338,-1065,97
2650.719,1.794906,-12.06678,-0.1436521,-0.2920926,-0.1736381,0.07669904,-0.5592638,224,-1006,68
2650.723,1.798813,-11.94707,-0.4213795,0.05746084,-0.1416802,0.08415589,-0.5326322,237,-1051,70
2650.727,1.802719,-11.86566,-0.7805097,0.4213795,-0.1012001,0.1001349,-0.4974785,310,-1020,46
2650.73,1.806625,-11.85609,-1.249773,0.6895301,-0.05113269,0.1257012,-0.44315,359,-1106,61
2650.734,1.810531,-11.88482,-1.628057,0.9050082,-0.01704423,0.1352886,-0.4005394,277,-1110,67
2650.738,1.814438,-12.0141,-1.982399,1.49877,-0.004261058,0.1257012,-0.3643204,230,-1046,75
2650.742,1.818344,-12.17691,-2.236184,2.169147,-0.008522115,0.09800433,-0.3408846,275,-1014,30
2650.746,1.82225,-12.44027,-2.27928,2.715025,-0.01278317,0.06711166,-0.3334278,309,-1101,43
2650.75,1.826156,-12.57914,-2.260126,2.983175,-0.01065264,0.0479369,-0.3323625,289,-1082,65
2650.754,1.830063,-12.69885,-2.212242,3.303998,0.02024002,0.03195793,-0.3430151,237,-1016,62
2650.758,1.833969,-12.70842,-1.996764,3.500323,0.05752428,-0.00958738,-0.370712,235,-1041,19
2650.762,1.837875,-12.58392,-1.843535,3.672705,0.08309063,-0.07243798,-0.3941478,307,-1062,57
2650.766,1.841781,-12.22001,-1.584961,3.663129,0.0958738,-0.1576591,-0.4250405,312,-1116,47
2650.77,1.845688,-11.85609,-1.326388,3.806781,0.09480853,-0.2077266,-0.4506069,282,-1078,66
2650.773,1.849594,-11.49217,-1.010353,4.022259,0.08522115,-0.2514024,-0.4687164,277,-1032,70
2650.777,1.8535,-11.11388,-0.6320692,4.151546,0.07563377,-0.2790993,-0.4814995,241,-1016,74
2650.781,1.857406,-10.45787,-0.1532289,4.165911,0.07030745,-0.298274,-0.4878911,328,-1086,8
2650.785,1.861313,-10.0317,0.1723825,4.012682,0.08415589,-0.2897519,-0.4910869,298,-1084,48
2650.789,1.865219,-9.634267,0.4501099,3.816357,0.1033307,-0.2716424,-0.4932174,242,-1111,71
2650.793,1.869125,-9.323021,0.5985504,3.552995,0.1299623,-0.2471413,-0.4942827,250,-1051,25
2650.797,1.873031,-8.987833,0.6512229,3.303998,0.149137,-0.2300971,-0.4857606,275,-1051,12
2650.801,1.876938,-8.762778,0.5746084,3.150769,0.1416802,-0.2194445,-0.4761732,289,-1096,50
2650.805,1.880844,-8.609549,0.5650316,2.964022,0.1299623,-0.2024002,-0.4569984,252,-1098,69
2650.809,1.88475,-8.566454,0.4979939,2.863465,0.112918,-0.1757686,-0.4367584,237,-1060,70
2650.812,1.888656,-8.690952,0.3687071,2.633622,0.09906959,-0.1278317,-0.4058658,279,-1064,23
2650.816,1.892563,-8.805874,0.3734955,2.571373,0.09161274,-0.09480853,-0.3771036,291,-1071,56
2650.82,1.896469,-8.968679,0.3926491,2.485181,0.08309063,-0.07563377,-0.3483415,293,-1047,55
2650.824,1.900375,-9.121908,0.3399766,2.298434,0.07456851,-0.05965481,-0.3153183,268,-1058,76
2650.828,1.904281,-9.414001,0.3112462,2.173935,0.05965481,-0.05006743,-0.2684466,258,-1045,59
2650.832,1.908188,-9.47625,0.3303998,2.092532,0.03941478,-0.04367584,-0.2290319,310,-1036,24
2650.836,1.912094,-9.624691,0.272939,1.977611,0.0149137,-0.03515373,-0.1842907,290,-1113,47
2650.84,1.916,-9.696517,0.2154781,1.924938,-0.01917476,-0.02237055,-0.1406149,292,-1075,56
2650.844,1.919906,-9.821015,0.2585738,1.776498,-0.0479369,-0.006391587,-0.09800433,284,-1023,58
2650.848,1.923813,-10.02692,0.1580173,1.699883,-0.05858954,-0.00958738,-0.04367584,289,-1013,16
2650.852,1.927719,-10.05565,0.1628057,1.714248,-0.05858954,-0.02556635,-0.01065264,301,-1067,22
2650.855,1.931625,-10.12747,0.004788403,1.628057,-0.06391587,-0.04687164,0.02343582,287,-1065,90
2650.859,1.935531,-10.19451,-0.02873042,1.632846,-0.06178534,-0.06711166,0.05326322,269,-1089,64
2650.863,1.939438,-10.1562,-0.2154781,1.565808,-0.0660464,-0.0809601,0.09374327,240,-1038,50
2650.867,1.943344,-10.1562,-0.3303998,1.594538,-0.05752428,-0.08841695,0.1246359,288,-1047,29
2650.871,1.94725,-10.16578,-0.4501099,1.656788,-0.04687164,-0.09693906,0.1565939,303,-1079,54
2650.875,1.951156,-10.07959,-0.56982,1.656788,-0.02450108,-0.1118528,0.1874865,311,-1014,64
2650.879,1.955063,-9.911995,-0.7374141,1.628057,0.007456851,-0.1352886,0.2226403,256,-1026,91
2650.883,1.958969,-9.840169,-0.9097966,1.613692,0.02130529,-0.1565939,0.2471413,247,-1055,71
2650.887,1.962875,-9.696517,-0.9481039,1.570596,0.03195793,-0.1778992,0.2748382,288,-1003,33
2650.891,1.966781,-9.528923,-0.9911995,1.513135,0.03621899,-0.1928129,0.3004046,323,-1100,84
2650.895,1.970688,-9.346963,-1.04866,1.47004,0.03834952,-0.205596,0.3323625,246,-1079,95
2650.898,1.974594,-9.198523,-1.058237,1.455675,0.04900216,-0.2226403,0.3515373,267,-1051,110
2650.902,1.9785,-8.944737,-1.005565,1.465251,0.06391587,-0.2460761,0.3717773,219,-1025,35
2650.906,1.982406,-8.762778,-0.9193734,1.374272,0.07030745,-0.2620551,0.3898868,287,-1083,34
2650.91,1.986313,-8.537723,-0.8523358,1.28808,0.07456851,-0.2769688,0.4133226,296,-1068,84
2650.914,1.990219,-8.250419,-0.7469909,1.211466,0.07882957,-0.2801645,0.4303668,251,-1093,88
2650.918,1.994125,-8.044518,-0.6512229,1.182736,0.08202536,-0.2865561,0.4420847,237,-1062,11
2650.922,1.998031,-7.833828,-0.617704,1.144428,0.07563377,-0.2918825,0.4495416,300,-1009,33
2650.926,2.001938,-7.599196,-0.4548983,1.015142,0.07137272,-0.2908172,0.459129,289,-1077,92
2650.93,2.005844,-7.474698,-0.3926491,0.9864111,0.07243798,-0.2897519,0.4601942,240,-1125,87
2650.934,2.00975,-7.31668,-0.2681506,0.9002198,0.07137272,-0.2876214,0.4580637,283,-1028,78
2650.938,2.013656,-7.206547,-0.225055,0.9864111,0.07030745,-0.2876214,0.4538026,274,-1036,48
2650.941,2.017563,-7.010222,-0.1101333,0.9481039,0.06711166,-0.2854909,0.4452805,266,-1064,30
2650.945,2.021469,-6.799533,-0.02394202,0.9481039,0.0628506,-0.2727077,0.4282363,306,-1081,103
2650.949,2.025375,-6.766014,0.04788403,0.9576807,0.05219796,-0.2556635,0.4143879,259,-1034,70
2650.953,2.029281,-6.655881,0.06224924,0.9576807,0.04154531,-0.2396845,0.3962784,259,-1007,12
2650.957,2.033188,-6.564901,0.1005565,0.9385271,0.0330232,-0.2205097,0.3781689,258,-1033,32
2650.961,2.037094,-6.473921,0.1340753,1.010353,0.02343582,-0.1917476,0.3536678,303,-1093,43
2650.965,2.041,-6.397307,0.1819593,0.9624691,0.0149137,-0.1725728,0.3355583,266,-1119,64
2650.969,2.044906,-6.349423,0.2154781,0.9002198,0.008522115,-0.1533981,0.3153183,274,-1025,90
2650.973,2.048813,-6.382942,0.1915361,0.9385271,-0.001065264,-0.128897,0.2961435,250,-1042,50
2650.977,2.052719,-6.402095,0.1436521,0.7996634,-0.005326322,-0.09054748,0.2663161,299,-1072,28
2650.98,2.056625,-6.449979,0.05746084,0.8044518,-0.007456851,-0.05752428,0.2471413,312,-1074,115
2650.984,2.060531,-6.50744,-0.004788403,0.7182605,-0.01171791,-0.02237055,0.2269013,283,-1057,83
2650.988,2.064438,-6.579266,-0.01436521,0.6272808,-0.01597897,0.01065264,0.2077266,215,-1033,37
2650.992,2.068344,-6.622362,-0.1436521,0.5410896,-0.02024002,0.04261058,0.1832255,294,-1013,40
2650.996,2.07225,-6.799533,-0.2825158,0.5315128,-0.01917476,0.06817692,0.1683118,309,-1023,7
2651,2.076156,-6.933608,-0.3734955,0.4836287,-0.01917476,0.08415589,0.1512675,295,-1060,78
2651.004,2.080063,-7.04853,-0.4596867,0.3399766,-0.0181095,0.1022654,0.1342233,241,-1009,78
2651.008,2.083969,-7.268796,-0.5267244,0.2585738,-0.0181095,0.1214401,0.112918,266,-1020,36
2651.012,2.087875,-7.393295,-0.5841852,0.1675941,-0.02237055,0.1384844,0.1043959,287,-1024,27
2651.016,2.091781,-7.603984,-0.6991069,0.1197101,-0.01917476,0.149137,0.09374327,302,-1038,94
2651.02,2.095688,-7.838616,-0.7517793,0.02873042,-0.01384844,0.1523328,0.07989483,278,-1098,74
2651.023,2.099594,-8.106767,-0.7996634,0.03351882,-0.001065264,0.1438107,0.06178534,269,-1007,64
2651.027,2.1035,-8.365341,-0.794875,0.05267244,0.004261058,0.1352886,0.05326322,271,-1031,43
2651.031,2.107406,-8.590396,-0.7613561,0,0.004261058,0.1267665,0.04154531,306,-1089,41
2651.035,2.111313,-8.834604,-0.7517793,-0.1053449,0.006391587,0.1107875,0.03089267,304,-1087,101
2651.039,2.115219,-9.131485,-0.6895301,-0.1005565,0.01065264,0.09693906,0.01704423,258,-1018,71
2651.043,2.119125,-9.423578,-0.5602432,-0.1484405,0.02450108,0.07030745,0.001065264,259,-1035,47
2651.047,2.123031,-9.586383,-0.4596867,-0.1580173,0.03195793,0.04900216,-0.01384844,294,-1043,54
2651.051,2.126938,-9.749189,-0.3399766,-0.1819593,0.03834952,0.02556635,-0.02450108,297,-1083,96
2651.055,2.130844,-9.902418,-0.2394202,-0.1867477,0.05006743,0.003195793,-0.03408846,272,-1112,30
2651.059,2.13475,-9.993398,-0.1436521,-0.2059013,0.06924219,-0.02343582,-0.0479369,253,-1065,78
2651.062,2.138656,-10.11311,-0.1197101,-0.2873042,0.07989483,-0.04154531,-0.05645902,251,-1061,41
2651.066,2.142563,-10.07959,-0.03351882,-0.3687071,0.09267801,-0.05965481,-0.06924219,309,-1085,17
2651.07,2.146469,-10.04607,0.04788403,-0.3926491,0.09800433,-0.07563377,-0.07563377,279,-1097,58
2651.074,2.150375,-9.902418,0.07182605,-0.4596867,0.1065264,-0.09374327,-0.08309063,229,-1045,78
2651.078,2.154281,-9.782708,0.1963245,-0.5315128,0.1107875,-0.1065264,-0.09161274,225,-1003,59
2651.082,2.158188,-9.605537,0.2011129,-0.5267244,0.1139833,-0.1139833,-0.0958738,300,-1044,29
2651.086,2.162094,-9.442731,0.2298434,-0.4836287,0.1118528,-0.1161138,-0.1001349,283,-1043,62
2651.09,2.166,-9.227253,0.3064578,-0.5554548,0.1033307,-0.1075917,-0.1033307,240,-1072,76
2651.094,2.169906,-9.097966,0.2873042,-0.521936,0.09480853,-0.1033307,-0.1054612,239,-1015,123
2651.098,2.173813,-8.916007,0.3016694,-0.4979939,0.08522115,-0.1001349,-0.1054612,208,-1029,71
2651.102,2.177719,-8.734048,0.272939,-0.521936,0.07350325,-0.08735168,-0.1065264,297,-1113,48
2651.105,2.181625,-8.609549,0.248997,-0.4836287,0.05539375,-0.06817692,-0.1022654,292,-1080,73
2651.109,2.185531,-8.5473,0.2537854,-0.4548983,0.03834952,-0.04900216,-0.1022654,303,-1079,75
2651.113,2.189438,-8.394071,0.2011129,-0.4740519,0.02769688,-0.03089267,-0.1012001,238,-1060,38
2651.117,2.193344,-8.303091,0.2394202,-0.5410896,0.01384844,-0.0149137,-0.0958738,291,-1039,26
2651.121,2.19725,-8.2169,0.1963245,-0.6368576,-0.006391587,0.008522115,-0.09374327,306,-1079,50
2651.125,2.201156,-8.18817,0.2394202,-0.6943185,-0.02237055,0.02130529,-0.08948221,293,-1076,79
2651.129,2.205063,-8.178593,0.248997,-0.7996634,-0.03515373,0.03408846,-0.08735168,234,-1031,104
2651.133,2.208969,-8.178593,0.3351882,-0.8236054,-0.05326322,0.04048005,-0.08309063,251,-1020,50
2651.137,2.212875,-8.245631,0.3639187,-0.8523358,-0.07243798,0.04154531,-0.08202536,273,-1077,52
2651.141,2.216781,-8.303091,0.3782839,-0.9672575,-0.1065264,0.03728426,-0.0809601,258,-1102,98
2651.145,2.220688,-8.441955,0.4501099,-1.086968,-0.128897,0.03621899,-0.07882957,257,-1030,83
2651.148,2.224594,-8.561665,0.5602432,-1.13964,-0.1544633,0.04261058,-0.07669904,247,-1040,25
2651.152,2.2285,-8.734048,0.6607997,-1.163582,-0.1800297,0.06072007,-0.07350325,313,-1021,-2
2651.156,2.232406,-8.810662,0.7469909,-1.297657,-0.2141182,0.09374327,-0.07030745,272,-1091,1
2651.16,2.236313,-8.920795,0.8379706,-1.450886,-0.2428803,0.1267665,-0.07243798,281,-1090,91
2651.164,2.240219,-8.935161,0.9433155,-1.527501,-0.2588593,0.1661813,-0.06924219,232,-1020,84
2651.168,2.244125,-9.050082,0.9385271,-1.489193,-0.2812298,0.2098571,-0.06711166,269,-1029,71
2651.172,2.248031,-9.165004,1.010353,-1.474828,-0.3089267,0.2599245,-0.06391587,297,-1019,90
2651.176,2.251938,-9.275137,1.072602,-1.206678,-0.3259709,0.2812298,-0.05432849,284,-1103,108
2651.18,2.255844,-9.461885,1.130063,-0.8236054,-0.3387541,0.2854909,-0.04154531,281,-1066,63
2651.184,2.25975,-9.653421,1.235408,-0.8283938,-0.3472762,0.2908172,-0.02556635,294,-1045,105
2651.188,2.263656,-9.902418,1.216254,-1.173159,-0.3643204,0.3217099,-0.001065264,273,-1023,59
2651.191,2.267563,-10.11311,0.9864111,-1.307234,-0.3749731,0.3589941,0.0181095,316,-1055,31
2651.195,2.271469,-10.27113,0.7661445,-1.335965,-0.3728426,0.3930826,0.03515373,319,-1078,54
2651.199,2.275375,-10.51055,0.6607997,-1.28808,-0.3792341,0.4207795,0.05219796,271,-1035,82
2651.203,2.279281,-10.76433,0.4118027,-1.278504,-0.4005394,0.4442153,0.07989483,264,-1032,20
2651.207,2.283188,-11.00375,0.1723825,-1.240196,-0.4218447,0.4516721,0.0958738,297,-982,34
2651.211,2.287094,-11.20965,-0.06224924,-1.11091,-0.4335626,0.459129,0.1139833,298,-1073,80
2651.215,2.291,-11.46823,-0.2537854,-0.9337386,-0.4186489,0.4580637,0.1331581,256,-1111,89
2651.219,2.294906,-11.71722,-0.4261679,-0.7422025,-0.3813647,0.4506069,0.1619202,229,-1022,107
2651.223,2.298813,-11.94707,-0.5315128,-0.7900865,-0.3515373,0.4388889,0.1906823,265,-1035,49
2651.227,2.302719,-12.27747,-0.6464344,-0.8379706,-0.3206446,0.4218447,0.2226403,299,-1067,38
2651.23,2.306625,-12.67012,-0.8092402,-0.9768343,-0.2950782,0.3973436,0.2609898,311,-1086,93
2651.234,2.310531,-13.10586,-0.9864111,-1.106121,-0.2599245,0.3568636,0.3014698,236,-1065,70
2651.238,2.314438,-13.34049,-1.091756,-1.359907,-0.2098571,0.3014698,0.3526025,251,-1018,31
2651.242,2.318344,-13.46499,-1.316811,-1.575385,-0.1842907,0.2663161,0.3802994,260,-999,45
2651.246,2.32225,-13.47936,-1.47004,-1.714248,-0.1438107,0.2396845,0.4037352,296,-1068,74
2651.25,2.326156,-13.42189,-1.613692,-1.953669,-0.1033307,0.2247708,0.4186489,279,-1077,91
2651.254,2.330063,-13.26867,-1.757344,-2.30801,-0.05326322,0.2173139,0.4463458,267,-1024,114
2651.258,2.333969,-13.14417,-1.623269,-2.528277,-0.01704423,0.2130529,0.4601942,284,-1037,24
2651.262,2.337875,-12.93827,-1.575385,-2.834735,0.006391587,0.1960087,0.479369,306,-1081,28
2651.266,2.341781,-12.77546,-1.479617,-3.078943,0.03834952,0.1512675,0.4921522,307,-1059,70
2651.27,2.345688,-12.4307,-1.273715,-3.074155,0.05432849,0.07030745,0.5049353,244,-1066,86
2651.273,2.349594,-12.22001,-1.221043,-3.347094,0.04687164,0.01917476,0.5060006,232,-1057,64
2651.277,2.3535,-11.92312,-0.9911995,-3.864241,0.03195793,-0.005326322,0.4985438,333,-1014,41
2651.281,2.357406,-11.69328,-0.7565677,-4.003105,0.004261058,-0.005326322,0.4857606,327,-1055,22
2651.285,2.361313,-11.55442,-0.4022259,-3.232172,-0.02876214,0,0.4665858,283,-1085,96
2651.289,2.365219,-11.42034,-0.1053449,-2.207454,-0.04580637,-0.0181095,0.4495416,209,-1033,93
2651.293,2.369125,-11.35809,0.2442086,-1.063026,-0.05432849,-0.03089267,0.4399542,248,-1048,29
2651.297,2.373031,-11.39161,0.5027823,0.6655881,-0.03834952,-0.01384844,0.4538026,311,-1073,29
2651.301,2.376938,-11.63103,0.6224924,1.900996,0.06178534,0.08948221,0.4932174,269,-1074,72
2651.305,2.380844,-11.75553,0.6512229,1.201889,0.1203749,0.2428803,0.5262406,255,-1125,75
2651.309,2.38475,-12.3876,0.3878607,1.235408,0.1299623,0.4165184,0.5741775,233,-1058,44
2651.312,2.388656,-13.23515,0.004788403,2.126051,0.149137,0.5177185,0.628506,285,-1009,53
2651.316,2.392563,-13.88158,-0.6512229,2.633622,0.1778992,0.531567,0.700944,277,-1021,63
2651.32,2.396469,-13.95341,-1.412579,2.27928,0.2173139,0.4751079,0.757403,296,-1041,50
2651.324,2.400375,-13.85764,-2.30801,2.059013,0.2556635,0.3994742,0.8426242,260,-1029,67
2651.328,2.404281,-13.92468,-3.035848,2.217031,0.2918825,0.3121225,0.9683254,239,-1031,60
2651.332,2.408188,-14.31254,-3.193865,2.375048,0.3259709,0.2045308,1.121723,269,-989,70
2651.336,2.412094,-14.49929,-3.002329,2.475605,0.3632552,0.03834952,1.28897,278,-1059,109
2651.34,2.416,-14.29817,-2.657564,2.193089,0.3589941,-0.06924219,1.319863,237,-1059,91
2651.344,2.419906,-13.66131,-2.173935,1.915361,0.3259709,-0.1310275,1.259143,281,-1007,95
2651.348,2.423813,-12.73236,-1.584961,1.632846,0.3025351,-0.1416802,1.136637,257,-991,20
2651.352,2.427719,-11.48259,-0.5075708,1.70946,0.2620551,-0.1235707,0.9203885,290,-1054,46
2651.355,2.431625,-11.02769,0.4740519,2.446874,0.2439456,-0.1352886,0.773382,276,-1026,78
2651.359,2.435531,-10.9846,1.690306,2.925714,0.2514024,-0.1885518,0.6700513,240,-1012,82
2651.363,2.439438,-11.23838,2.710236,3.141193,0.2482066,-0.2396845,0.5986786,208,-998,20
2651.367,2.443344,-11.84172,3.500323,3.260903,0.185356,-0.2535329,0.5091964,275,-1038,18
2651.371,2.44725,-12.22001,3.701436,3.260903,0.1150486,-0.2290319,0.4324974,255,-1070,74
2651.375,2.451156,-12.43548,3.797204,3.351882,0.04367584,-0.201335,0.3536678,241,-1051,125
2651.379,2.455063,-12.50731,3.936068,3.485958,-0.008522115,-0.1970739,0.278034,232,-1032,112
2651.383,2.458969,-12.33493,4.156334,3.921702,-0.05965481,-0.2194445,0.1800297,237,-992,5
2651.387,2.462875,-12.04283,4.127604,4.175488,-0.07989483,-0.2343582,0.1065264,278,-1066,77
2651.391,2.466781,-11.59751,4.070143,4.395754,-0.07989483,-0.2269013,0.04367584,273,-1094,159
2651.395,2.470688,-11.1474,4.031836,4.209007,-0.0660464,-0.1928129,-0.002130529,216,-1079,77
2651.398,2.474594,-10.56801,3.620033,4.165911,-0.04367584,-0.1459412,-0.02663161,241,-1040,39
2651.402,2.4785,-10.23761,3.069367,4.194641,-0.03941478,-0.1235707,-0.03621899,299,-1016,32
2651.406,2.482406,-9.864111,2.442086,3.892972,-0.04474111,-0.1107875,-0.04367584,288,-1045,124
2651.41,2.486313,-9.452308,1.838747,3.744531,-0.06924219,-0.09480853,-0.04474111,210,-1082,129
2651.414,2.490219,-9.112332,1.211466,3.696647,-0.1043959,-0.06711166,-0.03621899,249,-1026,56
2651.418,2.494125,-8.810662,0.8954314,3.691859,-0.1310275,-0.05539375,-0.02343582,225,-1021,44
2651.422,2.498031,-8.614338,0.5554548,3.591302,-0.1576591,-0.04580637,-0.01171791,283,-1099,23
2651.426,2.501938,-8.5473,0.2825158,3.356671,-0.1842907,-0.03621899,0.006391587,300,-1062,102
2651.43,2.505844,-8.5473,0.06224924,3.155558,-0.2109224,-0.02343582,0.02663161,225,-1062,73
2651.434,2.50975,-8.743624,-0.1963245,2.887407,-0.2354234,-0.01065264,0.0628506,209,-1044,52
2651.438,2.513656,-8.896853,-0.3016694,2.853888,-0.2471413,-0.001065264,0.08309063,297,-1035,36
2651.441,2.517563,-9.069236,-0.3591302,2.715025,-0.2535329,0.007456851,0.1043959,286,-1102,46
2651.445,2.521469,-9.452308,-0.3878607,2.619257,-0.2556635,0.01384844,0.1193096,275,-1066,102
2651.449,2.525375,-9.864111,-0.4740519,2.547431,-0.2450108,0.02130529,0.1384844,240,-1044,55
2651.453,2.529281,-10.26634,-0.4644751,2.355894,-0.2322276,0.02450108,0.1459412,229,-1037,80
2651.457,2.533188,-10.72124,-0.4501099,2.240973,-0.2205097,0.02237055,0.1459412,274,-1057,45
2651.461,2.537094,-11.12346,-0.5027823,2.111686,-0.2119876,0.02024002,0.1352886,303,-1040,80
2651.465,2.541,-11.67413,-0.4932055,1.987187,-0.1960087,0.00958738,0.1171791,233,-1065,101
2651.469,2.544906,-12.02368,-0.3878607,1.939303,-0.1896171,-0.00958738,0.0958738,225,-1041,11
2651.473,2.548813,-12.29183,-0.3064578,1.891419,-0.1821602,-0.03408846,0.06817692,296,-999,8
2651.477,2.552719,-12.39718,-0.1484405,1.824382,-0.1725728,-0.06072007,0.04261058,315,-1046,43
2651.48,2.556625,-12.36366,0.01915361,1.699883,-0.1587244,-0.0958738,0.005326322,283,-1064,103
2651.484,2.560531,-12.21043,0.1149217,1.628057,-0.1459412,-0.1225054,-0.02130529,225,-983,46
2651.488,2.564438,-11.98059,0.1771709,1.584961,-0.1299623,-0.1480718,-0.04261058,253,-1025,79
2651.492,2.568344,-11.60709,0.1388637,1.584961,-0.1161138,-0.1757686,-0.0628506,290,-992,68
2651.496,2.57225,-11.16177,0.1771709,1.61848,-0.1065264,-0.1981392,-0.08628642,298,-1046,85
2651.5,2.576156,-10.82179,0.1388637,1.546654,-0.1022654,-0.2098571,-0.1054612,230,-1087,86
2651.504,2.580063,-10.4866,0.1532289,1.584961,-0.09161274,-0.2226403,-0.1214401,235,-1020,101
2651.508,2.583969,-10.18015,0.07661445,1.541866,-0.0809601,-0.2354234,-0.1374191,288,-1009,65
2651.512,2.587875,-9.816227,-0.04788403,1.604115,-0.06178534,-0.2471413,-0.1661813,258,-1045,35
2651.516,2.591781,-9.548076,-0.1292869,1.551443,-0.04687164,-0.2567287,-0.1960087,286,-1121,97
2651.52,2.595688,-9.303868,-0.2585738,1.508347,-0.02769688,-0.2705772,-0.2290319,285,-1008,86
2651.523,2.599594,-8.973468,-0.3734955,1.393425,-0.01065264,-0.2854909,-0.2545982,240,-1000,63
2651.527,2.6035,-8.599972,-0.4644751,1.388637,0.005326322,-0.2929477,-0.2822951,257,-1013,42
2651.531,2.607406,-8.312668,-0.5554548,1.340753,0.02343582,-0.3025351,-0.3281014,289,-1062,106
2651.535,2.611313,-8.054094,-0.617704,1.340753,0.04261058,-0.3089267,-0.3600594,246,-1074,101
2651.539,2.615219,-7.848193,-0.7038953,1.331176,0.07030745,-0.3281014,-0.3952131,233,-1052,133
2651.543,2.619125,-7.589619,-0.6512229,1.331176,0.09267801,-0.3494067,-0.42291,277,-1018,48
2651.547,2.623031,-7.249643,-0.794875,1.340753,0.1161138,-0.3675162,-0.4516721,305,-1073,18
2651.551,2.626938,-7.019799,-0.8044518,1.407791,0.1438107,-0.3792341,-0.4740427,295,-1064,89
2651.555,2.630844,-6.775591,-0.8571242,1.388637,0.1683118,-0.3824299,-0.4932174,239,-1051,71
2651.559,2.63475,-6.526594,-0.8619126,1.455675,0.1896171,-0.3813647,-0.5081311,243,-1071,50
2651.562,2.638656,-6.349423,-0.9528923,1.517924,0.2173139,-0.3813647,-0.5145227,233,-1041,40
2651.566,2.642563,-6.210559,-0.9720459,1.527501,0.2386192,-0.3856257,-0.5134575,295,-1032,85
2651.57,2.646469,-6.186617,-1.005565,1.561019,0.2567287,-0.390952,-0.5123922,267,-1065,108
2651.574,2.650375,-6.157887,-0.9528923,1.527501,0.2748382,-0.3941478,-0.5145227,237,-1044,103
2651.578,2.654281,-6.167463,-0.9289502,1.580173,0.3067962,-0.3962784,-0.5123922,212,-1027,31
2651.582,2.658188,-6.220136,-0.9528923,1.49877,0.3217099,-0.3952131,-0.5017395,277,-1026,56
2651.586,2.662094,-6.320692,-0.8523358,1.422156,0.3376888,-0.3898868,-0.4900216,282,-1070,98
2651.59,2.666,-6.473921,-0.8379706,1.479617,0.3494067,-0.3877563,-0.4751079,253,-1040,78
2651.594,2.669906,-6.675034,-0.7709329,1.388637,0.3600594,-0.386691,-0.4506069,223,-1003,66
2651.598,2.673813,-6.847417,-0.641646,1.393425,0.3685815,-0.3877563,-0.427171,287,-990,37
2651.602,2.677719,-6.995857,-0.5793968,1.331176,0.3739078,-0.3813647,-0.4016047,285,-1077,38
2651.605,2.681625,-7.19697,-0.4740519,1.201889,0.3781689,-0.3728426,-0.3749731,239,-1044,98
2651.609,2.685531,-7.335834,-0.225055,1.101333,0.3845605,-0.3643204,-0.3355583,269,-981,105
2651.613,2.689438,-7.493851,-0.1197101,0.9911995,0.3749731,-0.3462109,-0.3089267,247,-1013,23
2651.617,2.693344,-7.627926,0.07661445,0.842759,0.3653857,-0.3249057,-0.2844256,274,-1034,32
2651.621,2.69725,-7.714118,0.272939,0.7996634,0.3557983,-0.3046656,-0.2524677,272,-1062,47
2651.625,2.701156,-7.819463,0.4165911,0.6799533,0.3430151,-0.2822951,-0.2279666,263,-1068,103
2651.629,2.705063,-7.915231,0.6033388,0.545878,0.3323625,-0.2503371,-0.1981392,270,-1022,27
2651.633,2.708969,-8.001422,0.6991069,0.4979939,0.3270362,-0.2300971,-0.1747034,307,-1008,-3
2651.637,2.712875,-8.044518,0.8571242,0.4070143,0.314253,-0.2119876,-0.1523328,256,-1019,60
2651.641,2.716781,-8.121132,0.9193734,0.3399766,0.3014698,-0.1928129,-0.1363538,324,-1033,91
2651.645,2.720688,-8.159439,1.063026,0.2442086,0.2822951,-0.1704423,-0.1107875,240,-1030,97
2651.648,2.724594,-8.178593,0.9911995,0.2106897,0.2609898,-0.1565939,-0.08948221,276,-1020,47
2651.652,2.7285,-8.259996,1.072602,0.2106897,0.2407498,-0.1502023,-0.07563377,264,-1009,71
2651.656,2.732406,-8.259996,1.043872,0.2442086,0.2162487,-0.1384844,-0.05752428,289,-1060,63
2651.66,2.736313,-8.312668,1.072602,0.2825158,0.1970739,-0.1363538,-0.04154531,225,-1031,85
2651.664,2.740219,-8.350975,0.9816227,0.2011129,0.1747034,-0.1352886,-0.02450108,278,-1047,43
2651.668,2.744125,-8.394071,0.9576807,0.2059013,0.1576591,-0.1374191,-0.01171791,273,-963,30
2651.672,2.748031,-8.389283,0.8954314,0.1197101,0.1384844,-0.1310275,-0.002130529,282,-1068,24
2651.676,2.751938,-8.370129,0.7805097,0.1292869,0.1225054,-0.1193096,0.01065264,318,-1045,109
2651.68,2.755844,-8.394071,0.6272808,0.1436521,0.1075917,-0.112918,0.01704423,284,-1000,92
2651.684,2.75975,-8.317457,0.6272808,0.1053449,0.09480853,-0.1065264,0.02024002,244,-1019,27
2651.688,2.763656,-8.327033,0.4070143,0.1340753,0.07989483,-0.09906959,0.02556635,260,-1014,2
2651.691,2.767563,-8.288726,0.2777274,0.1388637,0.07243798,-0.1033307,0.02556635,286,-1040,86
2651.695,2.771469,-8.317457,0.1723825,0.1580173,0.07137272,-0.1075917,0.02343582,256,-1076,92
2651.699,2.775375,-8.331822,0.03830723,0.05267244,0.06924219,-0.108657,0.02237055,282,-1026,73
2651.703,2.779281,-8.379706,-0.02394202,0.1149217,0.06817692,-0.1107875,0.01704423,264,-998,69
2651.707,2.783188,-8.389283,-0.1101333,0.1915361,0.06391587,-0.1257012,0.01171791,288,-1071,56
2651.711,2.787094,-8.389283,-0.1532289,0.1484405,0.07989483,-0.1161138,0.007456851,296,-1047,69
2651.715,2.791,-8.379706,-0.1580173,0.1149217,0.08309063,-0.1097222,0.007456851,265,-1015,107
2651.719,2.794906,-8.33661,-0.1771709,0.06224924,0.08628642,-0.1001349,0.005326322,232,-994,22
2651.723,2.798813,-8.379706,-0.1819593,0.05746084,0.09267801,-0.08841695,0.004261058,279,-1054,64
2651.727,2.802719,-8.370129,-0.1771709,-0.04788403,0.0958738,-0.0777643,0.001065264,284,-1079,48
2651.73,2.806625,-8.355764,-0.2154781,-0.1292869,0.1022654,-0.0777643,-0.002130529,252,-1066,84
2651.734,2.810531,-8.461109,-0.2011129,-0.1819593,0.1075917,-0.0777643,-0.005326322,232,-1009,82
2651.738,2.814438,-8.470685,-0.1867477,-0.3160346,0.1107875,-0.07350325,-0.007456851,232,-1038,47
2651.742,2.818344,-8.542512,-0.2537854,-0.3782839,0.1161138,-0.05752428,-0.007456851,303,-1077,60
2651.746,2.82225,-8.571242,-0.2202666,-0.4884171,0.1246359,-0.03834952,-0.004261058,293,-1070,82
2651.75,2.826156,-8.643068,-0.2059013,-0.6081272,0.1267665,-0.02237055,-0.001065264,202,-1046,58
2651.754,2.830063,-8.748413,-0.1723825,-0.6943185,0.128897,-0.01065264,0.003195793,252,-1053,29
2651.758,2.833969,-8.805874,-0.1819593,-0.7230489,0.1374191,0.004261058,0.005326322,296,-1021,16
2651.762,2.837875,-8.925584,-0.2106897,-0.6991069,0.1459412,0.02024002,0.008522115,308,-1084,55
2651.766,2.841781,-8.925584,-0.2154781,-0.7661445,0.1587244,0.03941478,0.01065264,279,-1025,97
2651.77,2.845688,-8.882488,-0.2585738,-0.6895301,0.1715076,0.06072007,0.0181095,199,-1010,78
2651.773,2.849594,-8.872911,-0.3160346,-0.6607997,0.1885518,0.09374327,0.02663161,241,-1028,31
2651.777,2.8535,-8.911219,-0.3734955,-0.6368576,0.1992044,0.1171791,0.03195793,310,-1051,40
2651.781,2.857406,-8.90643,-0.3974375,-0.6943185,0.205596,0.1438107,0.04154531,327,-1088,62
2651.785,2.861313,-8.983045,-0.4644751,-0.7326257,0.2119876,0.1704423,0.05006743,211,-1060,86
2651.789,2.865219,-8.983045,-0.5075708,-0.7661445,0.2205097,0.205596,0.0628506,243,-1024,89
2651.793,2.869125,-8.939949,-0.4740519,-0.9289502,0.2258361,0.2290319,0.07137272,291,-1033,41
2651.797,2.873031,-9.054871,-0.5315128,-0.7182605,0.2322276,0.2439456,0.07882957,302,-1077,44
2651.801,2.876938,-9.23683,-0.593762,-0.4070143,0.2343582,0.241815,0.08202536,314,-1085,77
2651.805,2.880844,-9.323021,-0.6943185,-0.2202666,0.221575,0.2290319,0.08415589,232,-1023,64
2651.809,2.88475,-9.437943,-0.7374141,-0.2298434,0.2045308,0.2237055,0.08415589,251,-991,22
2651.812,2.888656,-9.581595,-0.7134721,-0.05267244,0.1885518,0.221575,0.07989483,285,-989,43
2651.816,2.892563,-9.749189,-0.6368576,0.08140286,0.1725728,0.2119876,0.07563377,292,-1072,73
2651.82,2.896469,-9.945514,-0.4405331,-0.05746084,0.1533981,0.2024002,0.06924219,258,-1073,111
2651.824,2.900375,-10.12747,-0.2106897,-0.1580173,0.1395496,0.1981392,0.05645902,209,-1023,38
2651.828,2.904281,-10.24239,-0.02394202,-0.05267244,0.1310275,0.1938781,0.04900216,292,-996,38
2651.832,2.908188,-10.45787,0.07661445,0.02394202,0.1225054,0.1874865,0.04154531,268,-1073,50
2651.836,2.912094,-10.57758,0.1292869,-0.02394202,0.1097222,0.1757686,0.0298274,305,-1049,55
2651.84,2.916,-10.82179,0.1771709,-0.248997,0.08309063,0.165116,0.0181095,247,-1015,51
2651.844,2.919906,-10.95108,0.3256114,-0.2825158,0.05219796,0.1576591,0.00958738,237,-977,15
2651.848,2.923813,-11.03248,0.5602432,-0.4165911,0.0181095,0.1502023,0.004261058,289,-984,41
2651.852,2.927719,-11.18092,0.6799533,-0.5889736,-0.02024002,0.1470065,-0.006391587,268,-1035,92
2651.855,2.931625,-11.44907,0.8236054,-0.7900865,-0.05645902,0.1544633,-0.02450108,236,-1062,64
2651.859,2.935531,-11.71243,0.9433155,-0.9816227,-0.07563377,0.1587244,-0.04580637,235,-1022,94
2651.863,2.939438,-12.00453,1.072602,-1.091756,-0.09267801,0.1555286,-0.07030745,230,-1027,55
2651.867,2.943344,-12.26789,1.134852,-1.345541,-0.1043959,0.1438107,-0.09693906,282,-1085,46
2651.871,2.94725,-12.55041,1.297657,-1.628057,-0.1203749,0.1267665,-0.1278317,260,-1015,62
2651.875,2.951156,-12.6749,1.403002,-1.8579,-0.1363538,0.1182444,-0.1459412,249,-1056,78
2651.879,2.955063,-12.80419,1.403002,-2.073379,-0.149137,0.1107875,-0.1597897,291,-1011,21
2651.883,2.958969,-12.92869,1.383849,-2.178724,-0.165116,0.09480853,-0.1736381,276,-987,32
2651.887,2.962875,-13.02446,1.278504,-2.087744,-0.1768339,0.07137272,-0.1885518,296,-1089,80
2651.891,2.966781,-13.1729,1.082179,-1.977611,-0.1832255,0.06817692,-0.2045308,220,-1072,78
2651.895,2.970688,-13.25909,0.8236054,-1.599327,-0.1874865,0.08415589,-0.2237055,247,-1009,131
2651.898,2.974594,-13.42189,0.5506664,-0.7182605,-0.1928129,0.09906959,-0.2428803,235,-1037,21
2651.902,2.9785,-13.71878,0.09097966,0.5171476,-0.237554,0.09906959,-0.2897519,262,-1081,77
2651.906,2.982406,-14.05875,-0.1723825,1.604115,-0.2833603,0.1043959,-0.3398194,314,-1069,40
2651.91,2.986313,-14.37479,-0.1149217,2.197877,-0.3366236,0.1331581,-0.3973436,279,-1048,77
2651.914,2.990219,-14.67646,-0.009576807,1.115698,-0.3952131,0.2237055,-0.4644553,250,-1051,40
2651.918,2.994125,-14.95418,0.2537854,0.4309563,-0.4090615,0.3536678,-0.5422196,267,-1018,71
2651.922,2.998031,-15.16008,0.6464344,1.034295,-0.3281014,0.4314321,-0.6274408,311,-1034,76
2651.926,3.001938,-14.96376,1.067814,1.426944,-0.3004046,0.3856257,-0.6743124,304,-1070,67
2651.93,3.005844,-14.48492,1.398214,1.422156,-0.3217099,0.2972088,-0.7105314,260,-999,95
2651.934,3.00975,-14.02523,1.570596,1.043872,-0.3557983,0.2300971,-0.7499462,255,-1023,28
2651.938,3.013656,-13.5416,1.637634,0.7134721,-0.3653857,0.2045308,-0.8032094,281,-1059,56
2651.941,3.017563,-13.36443,1.383849,0.6991069,-0.3781689,0.1800297,-0.8415589,281,-1062,76
2651.945,3.021469,-13.21599,0.9433155,0.6129156,-0.4037352,0.1363538,-0.8799084,254,-1067,60
2651.949,3.025375,-13.18726,0.3160346,0.6464344,-0.427171,0.09054748,-0.9139969,244,-999,48
2651.953,3.029281,-12.87602,-0.4788403,0.593762,-0.4463458,0.02450108,-0.9310411,290,-988,65
2651.957,3.033188,-12.39718,-0.9720459,0.3160346,-0.4367584,0.00958738,-0.9108011,314,-1074,17
2651.961,3.037094,-11.77468,-1.417367,0.07182605,-0.3962784,0.04154531,-0.8607337,290,-1080,80
2651.965,3.041,-11.17134,-1.862689,-0.04309563,-0.3430151,0.0958738,-0.7861652,239,-1006,92
2651.969,3.044906,-10.75954,-2.710236,0.1675941,-0.2865561,0.1416802,-0.6743124,246,-994,38
2651.973,3.048813,-10.68293,-3.351882,0.2777274,-0.2524677,0.1416802,-0.5997439,296,-1033,17
2651.977,3.052719,-10.70687,-3.979163,0.4788403,-0.2077266,0.1150486,-0.5422196,308,-1052,65
2651.98,3.056625,-10.9415,-4.381389,0.8523358,-0.1416802,0.07989483,-0.4910869,266,-1058,89
2651.984,3.060531,-11.07079,-4.692635,1.312023,-0.0298274,0.0181095,-0.44315,259,-1019,109
2651.988,3.064438,-11.23838,-4.639963,2.087744,0.05752428,-0.03089267,-0.4207795,334,-1014,41
2651.992,3.068344,-11.23359,-4.448427,3.270479,0.1320928,-0.09374327,-0.4111921,285,-1066,8
2651.996,3.07225,-11.1091,-4.357447,3.955221,0.1736381,-0.1459412,-0.4101268,271,-1011,71
2652,3.076156,-10.78348,-4.213795,4.34787,0.2205097,-0.181095,-0.4293016,275,-975,70
2652.004,3.080063,-10.63504,-3.98874,4.927267,0.2460761,-0.2034655,-0.4442153,215,-1057,68
2652.008,3.083969,-10.33337,-3.53863,5.181052,0.2503371,-0.2290319,-0.4569984,309,-978,32
2652.012,3.087875,-10.14663,-2.959233,5.123592,0.2407498,-0.2492719,-0.4740427,302,-1065,74
2652.016,3.091781,-9.730036,-2.217031,4.831499,0.2258361,-0.2482066,-0.4900216,284,-1034,124
2652.02,3.095688,-9.504981,-1.120486,4.625598,0.2066613,-0.2226403,-0.5028048,244,-1001,84
2652.023,3.099594,-9.323021,-0.3064578,4.419696,0.2045308,-0.1906823,-0.5102617,247,-1009,51
2652.027,3.1035,-9.136274,0.4070143,4.103662,0.2066613,-0.1512675,-0.5166533,277,-1029,11
2652.031,3.107406,-9.030929,0.9911995,3.811569,0.2162487,-0.1022654,-0.5230448,307,-1065,79
2652.035,3.111313,-9.059659,1.517924,3.505111,0.2279666,-0.03195793,-0.5379585,269,-1067,69
2652.039,3.115219,-9.241618,1.80044,3.20823,0.2269013,0.02237055,-0.5443501,272,-983,38
2652.043,3.119125,-9.629479,1.795651,2.906561,0.2226403,0.07137272,-0.5496764,275,-1001,57
2652.047,3.123031,-10.17536,1.795651,2.743755,0.2162487,0.1139833,-0.5390238,308,-1019,49
2652.051,3.126938,-10.96066,1.599327,2.293645,0.201335,0.1470065,-0.5123922,245,-1060,90
2652.055,3.130844,-11.49696,1.47004,1.924938,0.1789644,0.1597897,-0.4825648,257,-1001,79
2652.059,3.13475,-12.02368,1.28808,1.68073,0.1683118,0.1608549,-0.4516721,263,-1030,40
2652.062,3.138656,-12.32056,1.125275,1.49877,0.1523328,0.1374191,-0.4143879,291,-1083,33
2652.066,3.142563,-12.30141,0.842759,1.23062,0.1118528,0.08628642,-0.3536678,286,-1071,83
2652.07,3.146469,-12.08593,0.641646,1.13964,0.07989483,0.0479369,-0.3004046,291,-1075,80
2652.074,3.150375,-11.82736,0.4118027,1.063026,0.06072007,0.01597897,-0.2471413,266,-1009,22
2652.078,3.154281,-11.48259,0.2298434,1.039084,0.04687164,-0.01704423,-0.1970739,322,-989,51
2652.082,3.158188,-11.01812,0.08140286,1.015142,0.02024002,-0.04900216,-0.128897,321,-1069,48
2652.086,3.162094,-10.79306,-0.03351882,1.11091,0.008522115,-0.07137272,-0.08415589,297,-1038,80
2652.09,3.166,-10.57279,-0.1149217,1.120486,-0.004261058,-0.09161274,-0.03515373,267,-1019,88
2652.094,3.169906,-10.47224,-0.1963245,1.249773,-0.0181095,-0.1075917,0.01384844,262,-1022,47
2652.098,3.173813,-10.29028,-0.344765,1.25935,-0.03408846,-0.1171791,0.07137272,293,-1070,66
2652.102,3.177719,-10.21366,-0.4261679,1.216254,-0.0330232,-0.1193096,0.1118528,286,-1035,84
2652.105,3.181625,-10.13705,-0.5267244,1.273715,-0.02663161,-0.1267665,0.149137,246,-1043,60
2652.109,3.185531,-10.04607,-0.6847417,1.321599,-0.01917476,-0.1320928,0.1864213,284,-1055,22
2652.113,3.189438,-9.859322,-0.7900865,1.340753,-0.01384844,-0.1406149,0.2237055,302,-1044,-16
2652.117,3.193344,-9.639056,-1.005565,1.364695,-0.004261058,-0.1555286,0.2695119,312,-1045,48
2652.121,3.19725,-9.485827,-1.16837,1.388637,0.008522115,-0.1715076,0.3004046,347,-1045,69
2652.125,3.201156,-9.251195,-1.173159,1.374272,0.02237055,-0.1917476,0.3355583,264,-1020,112
2652.129,3.205063,-8.90643,-1.249773,1.426944,0.0330232,-0.2162487,0.370712,263,-1044,14
2652.133,3.208969,-8.528146,-1.28808,1.484405,0.0479369,-0.2450108,0.4207795,318,-991,45
2652.137,3.212875,-8.169016,-1.297657,1.513135,0.05113269,-0.2695119,0.4548679,278,-1072,76
2652.141,3.216781,-7.795521,-1.173159,1.532289,0.05432849,-0.294013,0.4868258,266,-1073,62
2652.145,3.220688,-7.383718,-1.086968,1.575385,0.05326322,-0.3131877,0.5187838,238,-992,93
2652.148,3.224594,-6.833052,-0.9337386,1.651999,0.0479369,-0.3281014,0.5592638,269,-1003,49
2652.152,3.2285,-6.47871,-0.7757213,1.623269,0.04687164,-0.3312972,0.5826996,307,-1030,47
2652.156,3.232406,-6.133945,-0.6033388,1.651999,0.04048005,-0.3249057,0.6072007,278,-1033,124
2652.16,3.236313,-5.851429,-0.4309563,1.527501,0.03515373,-0.3185141,0.6210492,287,-1020,84
2652.164,3.240219,-5.439626,-0.1628057,1.508347,0.02663161,-0.2972088,0.6391587,309,-1027,52
2652.168,3.244125,-5.27682,-0.01915361,1.484405,0.01917476,-0.2812298,0.6466155,297,-1047,26
2652.172,3.248031,-5.147534,0.1628057,1.513135,0.01065264,-0.2620551,0.6476808,303,-1030,82
2652.176,3.251938,-4.955997,0.3160346,1.493982,-0.002130529,-0.2439456,0.6434197,266,-1072,92
2652.18,3.255844,-4.922479,0.4692635,1.446098,-0.02130529,-0.2141182,0.6263755,246,-998,82
2652.184,3.25975,-4.960786,0.6224924,1.431733,-0.03941478,-0.1842907,0.6050702,268,-997,32
2652.188,3.263656,-5.027823,0.6991069,1.383849,-0.05965481,-0.1512675,0.5816344,255,-1069,40
2652.191,3.267563,-5.118803,0.7709329,1.359907,-0.07882957,-0.1075917,0.5507417,287,-1055,118
2652.195,3.271469,-5.291186,0.8954314,1.359907,-0.1097222,-0.0479369,0.5028048,241,-1073,92
2652.199,3.275375,-5.497087,1.034295,1.264138,-0.1342233,-0.007456851,0.46339,252,-983,28
2652.203,3.279281,-5.693412,1.034295,1.23062,-0.1597897,0.02769688,0.4175837,289,-1018,39
2652.207,3.283188,-5.899313,1.015142,1.192312,-0.1789644,0.06178534,0.3728426,326,-1059,42
2652.211,3.287094,-6.186617,0.9816227,1.134852,-0.201335,0.08735168,0.3217099,251,-1070,75
2652.215,3.291,-6.406884,0.8283938,1.039084,-0.2258361,0.1267665,0.2567287,303,-1031,102
2652.219,3.294906,-6.579266,0.6895301,0.9816227,-0.2396845,0.1608549,0.2098571,265,-995,30
2652.223,3.298813,-6.890512,0.4884171,0.8762778,-0.2503371,0.1821602,0.1640507,322,-1044,64
2652.227,3.302719,-7.082049,0.3495534,0.818817,-0.2514024,0.2002697,0.1161138,316,-1053,96
2652.23,3.306625,-7.335834,0.08619126,0.6895301,-0.2588593,0.2087918,0.0628506,232,-1043,82
2652.234,3.310531,-7.603984,-0.06224924,0.6655881,-0.2641856,0.2109224,0.02769688,260,-981,34
2652.238,3.314438,-7.829039,-0.2920926,0.4979939,-0.2673814,0.2087918,-0.003195793,296,-999,42
2652.242,3.318344,-8.030152,-0.4740519,0.3878607,-0.2599245,0.2024002,-0.02876214,312,-1038,41
2652.246,3.32225,-8.288726,-0.617704,0.2202666,-0.2471413,0.1832255,-0.05645902,308,-1060,94
2652.25,3.326156,-8.475474,-0.794875,0.08619126,-0.2482066,0.1725728,-0.0660464,270,-1011,100
2652.254,3.330063,-8.604761,-0.9193734,-0.01436521,-0.237554,0.1597897,-0.0777643,246,-1015,52
2652.258,3.333969,-8.772355,-1.000776,-0.04309563,-0.2269013,0.1374191,-0.08735168,295,-979,43
2652.262,3.337875,-8.954314,-1.072602,-0.1580173,-0.2162487,0.1097222,-0.08948221,317,-1043,64
2652.266,3.341781,-9.030929,-1.058237,-0.3064578,-0.2087918,0.08415589,-0.09161274,253,-1040,84
2652.27,3.345688,-9.102755,-1.015142,-0.3734955,-0.1981392,0.06178534,-0.09693906,240,-980,48
2652.273,3.349594,-9.198523,-0.9433155,-0.4692635,-0.1864213,0.04474111,-0.0958738,298,-989,52
2652.277,3.3535,-9.337386,-0.7613561,-0.593762,-0.1757686,0.02024002,-0.09480853,294,-1074,28
2652.281,3.357406,-9.385271,-0.617704,-0.5793968,-0.169377,0.006391587,-0.09374327,314,-1024,119
2652.285,3.361313,-9.442731,-0.4692635,-0.6464344,-0.1597897,-0.006391587,-0.09480853,281,-1001,97
2652.289,3.365219,-9.466673,-0.3591302,-0.6799533,-0.1523328,-0.02237055,-0.09374327,244,-1010,78
2652.293,3.369125,-9.528923,-0.1436521,-0.7709329,-0.1395496,-0.03408846,-0.09693906,291,-993,55
2652.297,3.373031,-9.533711,0,-0.8044518,-0.1342233,-0.04261058,-0.09693906,291,-1065,105
2652.301,3.376938,-9.639056,0.09097966,-0.818817,-0.1267665,-0.04580637,-0.0958738,271,-1065,61
2652.305,3.380844,-9.634267,0.2154781,-0.9050082,-0.1214401,-0.04900216,-0.0958738,268,-1039,84
2652.309,3.38475,-9.662998,0.320823,-0.914585,-0.1193096,-0.04580637,-0.0958738,251,-994,50
2652.312,3.388656,-9.730036,0.344765,-0.9433155,-0.1139833,-0.04474111,-0.09480853,323,-1071,45
2652.316,3.392563,-9.720459,0.3543418,-0.9193734,-0.1075917,-0.04261058,-0.09480853,326,-997,69
2652.32,3.396469,-9.667786,0.3639187,-0.8571242,-0.1022654,-0.03515373,-0.09480853,273,-1048,89
2652.324,3.400375,-9.667786,0.3351882,-0.842759,-0.09693906,-0.02343582,-0.09267801,261,-975,48
2652.328,3.404281,-9.538499,0.3351882,-0.794875,-0.08841695,0.001065264,-0.08948221,296,-1025,37
2652.332,3.408188,-9.442731,0.272939,-0.794875,-0.08948221,0.0181095,-0.08841695,294,-1052,68
2652.336,3.412094,-9.308656,0.1867477,-0.7996634,-0.09161274,0.03089267,-0.08628642,253,-1036,128
2652.34,3.416,-9.203311,0.08619126,-0.7900865,-0.09693906,0.04048005,-0.08415589,223,-1009,82
2652.344,3.419906,-9.165004,0.04788403,-0.8140286,-0.1043959,0.04154531,-0.07882957,264,-982,46
2652.348,3.423813,-9.069236,0.08140286,-0.8331822,-0.1107875,0.04900216,-0.07563377,313,-1065,66
2652.352,3.427719,-9.02614,0.09576807,-0.7517793,-0.1203749,0.05219796,-0.06817692,309,-1053,83
2652.355,3.431625,-8.973468,0.1580173,-0.7517793,-0.1299623,0.05645902,-0.0628506,254,-1049,100
2652.359,3.435531,-8.939949,0.1484405,-0.8954314,-0.1416802,0.0660464,-0.05858954,279,-972,53
2652.363,3.439438,-8.920795,0.1244985,-0.9864111,-0.1512675,0.07350325,-0.05752428,317,-1004,53
2652.367,3.443344,-9.021352,0.2154781,-1.039084,-0.165116,0.07989483,-0.05752428,304,-1066,53
2652.371,3.44725,-9.083601,0.3064578,-1.154005,-0.1864213,0.08415589,-0.06072007,268,-1026,100
2652.375,3.451156,-9.188946,0.4596867,-1.04866,-0.2237055,0.08735168,-0.07030745,264,-1001,74
2652.379,3.455063,-9.275137,0.5075708,-0.8619126,-0.2492719,0.08948221,-0.0809601,249,-988,27
2652.383,3.458969,-9.351752,0.6703765,-0.7086837,-0.2641856,0.09374327,-0.0958738,303,-1043,56
2652.387,3.462875,-9.466673,0.7757213,-0.5171476,-0.2759035,0.1065264,-0.1118528,323,-1056,104
2652.391,3.466781,-9.634267,0.7709329,-0.2825158,-0.2865561,0.1384844,-0.1342233,289,-1055,87
2652.395,3.470688,-9.710882,0.7661445,-0.4453215,-0.2854909,0.1683118,-0.1480718,248,-993,32
2652.398,3.474594,-9.888053,0.6607997,-0.5602432,-0.2908172,0.2087918,-0.1555286,298,-1001,11
2652.402,3.4785,-10.06522,0.4309563,-0.6320692,-0.3025351,0.2439456,-0.1608549,274,-1065,24
2652.406,3.482406,-10.33337,0.2154781,-0.5889736,-0.3131877,0.2695119,-0.1587244,318,-1038,76
2652.41,3.486313,-10.5297,-0.004788403,-0.5985504,-0.3249057,0.278034,-0.1512675,281,-974,84
2652.414,3.490219,-10.62547,-0.09097966,-0.5889736,-0.3281014,0.2822951,-0.1331581,252,-1021,32
2652.418,3.494125,-10.72124,-0.2442086,-0.6464344,-0.3174488,0.2865561,-0.112918,304,-1006,31
2652.422,3.498031,-10.79306,-0.4357447,-0.6464344,-0.2908172,0.2993393,-0.08415589,328,-1046,78
2652.426,3.501938,-10.81221,-0.6560113,-0.7757213,-0.2439456,0.3174488,-0.03515373,272,-1031,94
2652.43,3.505844,-10.97502,-0.7852981,-0.9911995,-0.2130529,0.3259709,0.01065264,304,-1039,83
2652.434,3.50975,-11.14261,-0.9289502,-1.101333,-0.1896171,0.3238404,0.06498113,297,-987,34
2652.438,3.513656,-11.28627,-1.000776,-1.249773,-0.1736381,0.3110572,0.1235707,306,-1053,58
2652.441,3.517563,-11.45386,-1.04866,-1.441309,-0.1608549,0.2897519,0.1949434,257,-1038,101
2652.445,3.521469,-11.55442,-1.063026,-1.642422,-0.1608549,0.2801645,0.2460761,274,-1009,36
2652.449,3.525375,-11.57357,-1.091756,-1.819593,-0.149137,0.2673814,0.2918825,278,-1010,62
2652.453,3.529281,-11.64061,-1.063026,-2.049437,-0.1203749,0.2567287,0.330232,310,-993,49
2652.457,3.533188,-11.73159,-1.082179,-2.293645,-0.0777643,0.237554,0.3760383,312,-1026,98
2652.461,3.537094,-11.78426,-1.053449,-2.513912,-0.05432849,0.2332929,0.4048005,235,-1064,121
2652.465,3.541,-11.89439,-1.077391,-2.825158,-0.04261058,0.2290319,0.4314321,290,-990,113
2652.469,3.544906,-11.96143,-1.043872,-3.1795,-0.04048005,0.2247708,0.4580637,294,-1018,52
2652.473,3.548813,-12.16733,-0.8858546,-3.260903,-0.04261058,0.2024002,0.4846953,294,-1010,17
2652.477,3.552719,-12.11945,-0.7852981,-3.533842,-0.04261058,0.1683118,0.4942827,326,-1039,98
2652.48,3.556625,-12.12903,-0.5793968,-3.74932,-0.04367584,0.1278317,0.4942827,238,-1069,96
2652.484,3.560531,-12.11945,-0.3543418,-3.873818,-0.04900216,0.09161274,0.4857606,256,-1009,21
2652.488,3.564438,-12.13381,0.04309563,-2.987964,-0.05326322,0.05752428,0.4719121,340,-991,58
2652.492,3.568344,-12.22001,0.2537854,-1.982399,-0.04580637,0.03621899,0.4580637,328,-1050,61
2652.496,3.57225,-12.39239,0.4548983,-0.7326257,-0.03728426,0.0298274,0.4506069,276,-1049,73
2652.5,3.576156,-12.67012,0.5027823,1.091756,-0.01384844,0.05113269,0.4495416,271,-1010,76
2652.504,3.580063,-13.19684,0.320823,2.523489,0.02130529,0.1107875,0.4484763,291,-1005,34
2652.508,3.583969,-13.43147,-0.08619126,1.517924,0.05006743,0.2801645,0.44315,347,-1073,27
2652.512,3.587875,-14.08269,-0.7182605,0.56982,0.02130529,0.4538026,0.4612595,309,-1042,88
2652.516,3.591781,-15.03559,-1.465251,1.699883,0.01171791,0.5539375,0.5038701,247,-1034,79
2652.52,3.595688,-15.85919,-2.092532,2.499547,0.02556635,0.5571333,0.5624596,246,-1034,15
2652.523,3.599594,-15.63893,-2.964022,1.584961,0.09161274,0.4783037,0.6423545,326,-1021,71
2652.527,3.6035,-15.05474,-3.864241,0.7709329,0.1161138,0.4207795,0.7041398,326,-1048,40
2652.531,3.607406,-14.61421,-4.515464,0.8236054,0.1832255,0.334493,0.7797736,348,-1022,95
2652.535,3.611313,-14.33169,-4.616021,0.9911995,0.3067962,0.2119876,0.8692558,261,-999,75
2652.539,3.615219,-13.90073,-4.007894,0.9193734,0.4548679,0.01597897,0.9629991,270,-1005,12
2652.543,3.619125,-13.44105,-3.32794,0.7278373,0.4772385,-0.09480853,0.9864349,303,-999,18
2652.547,3.623031,-12.77067,-2.873042,0.5985504,0.459129,-0.1565939,0.9544769,325,-1052,71
2652.551,3.626938,-11.85609,-2.456451,0.3974375,0.4186489,-0.1576591,0.8692558,267,-1025,64
2652.555,3.630844,-10.67814,-1.699883,0.2537854,0.3249057,-0.09800433,0.7030745,251,-999,136
2652.559,3.63475,-10.18493,-0.7134721,0.6129156,0.2492719,-0.05219796,0.5805691,334,-1024,51
2652.562,3.638656,-10.16099,0.5650316,1.364695,0.201335,-0.05432849,0.495348,276,-1040,34
2652.566,3.642563,-10.38126,1.910573,2.011129,0.1704423,-0.108657,0.4388889,296,-1056,117
2652.57,3.646469,-10.93192,3.414132,2.557007,0.1065264,-0.1949434,0.4058658,290,-1027,77
2652.574,3.650375,-11.315,4.036624,2.614468,0.04687164,-0.221575,0.4037352,230,-973,29
2652.578,3.654281,-11.65976,4.280833,2.643199,-0.02876214,-0.2109224,0.4101268,332,-1025,-1
2652.582,3.658188,-12.04283,4.410119,2.892196,-0.09693906,-0.181095,0.4133226,355,-1057,57
2652.586,3.662094,-12.23437,4.462792,3.830723,-0.1608549,-0.165116,0.4079963,294,-1023,97
2652.59,3.666,-11.95664,4.43885,4.448427,-0.1778992,-0.1757686,0.3930826,252,-995,99
2652.594,3.669906,-11.54963,4.486734,4.635174,-0.1800297,-0.1917476,0.3728426,290,-1013,24
2652.598,3.673813,-10.9415,4.477157,4.64954,-0.1789644,-0.1874865,0.3536678,329,-1058,51
2652.602,3.677719,-10.27591,4.204218,4.673482,-0.1789644,-0.1661813,0.3408846,294,-1044,75
2652.605,3.681625,-9.883264,3.605668,4.501099,-0.1768339,-0.1235707,0.334493,264,-1030,84
2652.609,3.685531,-9.576807,3.055001,4.395754,-0.1768339,-0.08841695,0.3483415,278,-1025,60
2652.613,3.689438,-9.279926,2.413355,4.295198,-0.1736381,-0.05539375,0.3696468,303,-1007,74
2652.617,3.693344,-9.035717,1.838747,4.323928,-0.1778992,-0.03195793,0.3994742,294,-1045,97
2652.621,3.69725,-8.887277,1.101333,4.180276,-0.2034655,-0.00958738,0.4388889,249,-1010,83
2652.625,3.701156,-8.825027,0.5841852,3.931279,-0.2311624,0.02024002,0.4708469,250,-1008,72
2652.629,3.705063,-8.983045,0.07182605,3.648763,-0.2482066,0.05113269,0.4974785,266,-1024,44
2652.633,3.708969,-9.279926,-0.4022259,3.375824,-0.2588593,0.07456851,0.5251754,307,-1034,12
2652.637,3.712875,-9.902418,-0.9528923,3.074155,-0.2588593,0.08415589,0.5624596,290,-1036,104
2652.641,3.716781,-10.47703,-1.35033,2.964022,-0.2482066,0.07456851,0.5848302,232,-1029,72
2652.645,3.720688,-11.10431,-1.70946,2.63841,-0.2290319,0.05432849,0.5986786,275,-1018,18
2652.648,3.724594,-11.8082,-2.035071,2.298434,-0.1970739,0.0330232,0.6008091,300,-963,46
2652.652,3.7285,-12.67012,-2.384625,2.015918,-0.1587244,0.004261058,0.588026,320,-1053,33
2652.656,3.732406,-13.16811,-2.470816,1.728614,-0.1352886,-0.01917476,0.5667207,305,-1041,83
2652.66,3.736313,-13.44584,-2.375048,1.508347,-0.1097222,-0.05432849,0.5294364,233,-1008,78
2652.664,3.740219,-13.45062,-2.193089,1.412579,-0.07882957,-0.1001349,0.4814995,264,-1003,58
2652.668,3.744125,-13.10107,-1.628057,1.283292,-0.02663161,-0.165116,0.4058658,299,-1056,50
2652.672,3.748031,-12.68448,-1.201889,1.369483,0.007456851,-0.205596,0.350472,306,-1047,80
2652.676,3.751938,-12.25831,-0.794875,1.403002,0.03621899,-0.2407498,0.2972088,242,-1043,91
2652.68,3.755844,-11.79384,-0.4022259,1.431733,0.05965481,-0.2567287,0.2439456,237,-1018,54
2652.684,3.75975,-11.29584,-0.1101333,1.47004,0.07989483,-0.2695119,0.1768339,336,-1028,27
2652.688,3.763656,-11.07079,0.1244985,1.455675,0.09480853,-0.2759035,0.1257012,283,-1017,28
2652.691,3.767563,-10.70208,0.248997,1.455675,0.108657,-0.2844256,0.07563377,293,-1025,87
2652.695,3.771469,-10.45787,0.3543418,1.460463,0.1118528,-0.2822951,0.0298274,253,-996,70
2652.699,3.775375,-10.18015,0.4405331,1.374272,0.1182444,-0.2759035,-0.00958738,237,-1020,49
2652.703,3.779281,-9.940725,0.593762,1.292869,0.1363538,-0.2695119,-0.06711166,279,-997,26
2652.707,3.783188,-9.643844,0.6224924,1.244985,0.1427454,-0.2652508,-0.1054612,300,-1047,93
2652.711,3.787094,-9.404424,0.6272808,1.216254,0.149137,-0.2599245,-0.1427454,271,-1052,76
2652.715,3.791,-9.097966,0.6368576,1.211466,0.1597897,-0.2535329,-0.1800297,293,-1030,92
2652.719,3.794906,-8.748413,0.6560113,1.182736,0.1736381,-0.2471413,-0.2322276,323,-996,61
2652.723,3.798813,-8.499416,0.6224924,1.11091,0.1874865,-0.2428803,-0.273773,339,-1054,53
2652.727,3.802719,-8.298303,0.617704,1.067814,0.1992044,-0.241815,-0.3110572,309,-1054,115
2652.73,3.806625,-7.996634,0.56982,1.029507,0.2109224,-0.241815,-0.3451457,263,-997,84
2652.734,3.810531,-7.651869,0.5171476,1.005565,0.2173139,-0.2364887,-0.3877563,266,-999,20
2652.738,3.814438,-7.489063,0.4213795,0.9624691,0.2322276,-0.2386192,-0.4186489,298,-998,57
2652.742,3.818344,-7.359776,0.3399766,0.9816227,0.241815,-0.2407498,-0.4474111,286,-1034,87
2652.746,3.82225,-7.153875,0.320823,0.914585,0.2471413,-0.2396845,-0.4676511,233,-1067,59
2652.75,3.826156,-6.947973,0.1675941,0.8044518,0.2514024,-0.2450108,-0.4974785,238,-1006,77
2652.754,3.830063,-6.799533,0.2154781,0.8092402,0.2524677,-0.2514024,-0.5113269,247,-1051,103
2652.758,3.833969,-6.794744,0.1436521,0.7900865,0.2514024,-0.2588593,-0.5209143,280,-1024,37
2652.762,3.837875,-6.655881,0.1244985,0.7422025,0.2545982,-0.2641856,-0.5241101,307,-1043,93
2652.766,3.841781,-6.727707,0.09097966,0.7326257,0.2599245,-0.2695119,-0.5262406,246,-1041,81
2652.77,3.845688,-6.698976,0.1101333,0.7278373,0.2609898,-0.273773,-0.5230448,229,-1029,15
2652.773,3.849594,-6.766014,0.06224924,0.6799533,0.2652508,-0.2790993,-0.5145227,310,-973,17
2652.777,3.8535,-6.813898,0.04788403,0.7613561,0.2705772,-0.2790993,-0.4985438,299,-1047,89
2652.781,3.857406,-6.971915,-0.01436521,0.7422025,0.2833603,-0.2833603,-0.4772385,269,-1052,64
2652.785,3.861313,-7.015011,-0.08619126,0.8044518,0.2961435,-0.2844256,-0.4569984,270,-992,57
2652.789,3.865219,-7.091625,-0.07182605,0.866701,0.3089267,-0.2844256,-0.4388889,281,-1003,50
2652.793,3.869125,-7.129933,-0.1723825,0.9050082,0.3227751,-0.2790993,-0.4111921,312,-1039,82
2652.797,3.873031,-7.225701,-0.2442086,0.9193734,0.3408846,-0.2727077,-0.3813647,301,-1065,74
2652.801,3.876938,-7.28795,-0.2777274,0.7996634,0.3589941,-0.2705772,-0.3419499,226,-1075,125
2652.805,3.880844,-7.350199,-0.4070143,0.8475474,0.3632552,-0.278034,-0.3163835,234,-1016,42
2652.809,3.88475,-7.369353,-0.4644751,0.8092402,0.3675162,-0.2908172,-0.2918825,294,-1002,64
2652.812,3.888656,-7.393295,-0.4596867,0.9002198,0.3771036,-0.3057309,-0.2609898,297,-1038,28
2652.816,3.892563,-7.393295,-0.4692635,0.8236054,0.3834952,-0.314253,-0.2258361,313,-1062,104
2652.82,3.896469,-7.489063,-0.4309563,0.7996634,0.390952,-0.3206446,-0.201335,263,-979,61
2652.824,3.900375,-7.479486,-0.3591302,0.7709329,0.3952131,-0.3238404,-0.1704423,240,-1014,25
2652.828,3.904281,-7.532158,-0.2825158,0.7086837,0.3952131,-0.3217099,-0.1480718,310,-1001,61
2652.832,3.908188,-7.493851,-0.1244985,0.6129156,0.3920173,-0.3057309,-0.1203749,279,-1049,88
2652.836,3.912094,-7.541735,-0.06224924,0.4596867,0.3856257,-0.2918825,-0.0958738,259,-1034,77
2652.84,3.916,-7.560889,-0.04309563,0.344765,0.3856257,-0.278034,-0.07563377,242,-997,32
2652.844,3.919906,-7.541735,-0.01915361,0.2633622,0.3824299,-0.2620551,-0.05965481,291,-978,6
2652.848,3.923813,-7.570466,-0.009576807,0.2154781,0.3675162,-0.237554,-0.03728426,326,-1028,27
2652.852,3.927719,-7.565677,0.01436521,0.08140286,0.3685815,-0.2205097,-0.01917476,295,-1040,87
2652.855,3.931625,-7.5561,0.1101333,0.05746084,0.3632552,-0.2034655,-0.005326322,259,-999,58
2652.859,3.935531,-7.52737,0.02394202,-0.01436521,0.3515373,-0.1789644,0.01065264,248,-1026,36
2652.863,3.939438,-7.532158,0.01915361,-0.1149217,0.3430151,-0.1502023,0.02769688,304,-1026,52
2652.867,3.943344,-7.441179,0.04309563,-0.1340753,0.334493,-0.1299623,0.04474111,308,-1044,104
2652.871,3.94725,-7.513005,-0.02873042,-0.1053449,0.3334278,-0.1139833,0.06072007,256,-1019,100
2652.875,3.951156,-7.64708,-0.1244985,-0.004788403,0.3291667,-0.1012001,0.07669904,290,-1002,59
2652.879,3.955063,-7.752425,-0.225055,-0.03351882,0.3259709,-0.08948221,0.09480853,275,-989,50
2652.883,3.958969,-7.867347,-0.1915361,-0.08140286,0.3249057,-0.07989483,0.1097222,257,-1034,19
2652.887,3.962875,-7.929596,-0.2777274,-0.1675941,0.3227751,-0.06711166,0.1203749,321,-1029,71
2652.891,3.966781,-7.996634,-0.3687071,-0.2202666,0.3217099,-0.05006743,0.1267665,229,-981,90
2652.895,3.970688,-8.135497,-0.3687071,-0.1532289,0.3238404,-0.03621899,0.1331581,223,-988,50
2652.898,3.974594,-8.202535,-0.3830723,-0.2011129,0.3238404,-0.02556635,0.1395496,326,-1018,51
2652.902,3.9785,-8.279149,-0.3782839,-0.2202666,0.3238404,-0.01704423,0.1395496,313,-1043,82
2652.906,3.982406,-8.327033,-0.3399766,-0.248997,0.3291667,-0.008522115,0.1427454,249,-1036,78
2652.91,3.986313,-8.303091,-0.3256114,-0.3064578,0.3387541,0.002130529,0.1427454,235,-971,129
2652.914,3.990219,-8.360552,-0.3591302,-0.4309563,0.3526025,0.01704423,0.1406149,245,-998,52
2652.918,3.994125,-8.384494,-0.3878607,-0.4644751,0.3600594,0.02450108,0.1352886,309,-1024,41
2652.922,3.998031,-8.360552,-0.3543418,-0.3974375,0.3653857,0.02450108,0.1320928,321,-1042,77
2652.926,4.001938,-8.398859,-0.4165911,-0.3639187,0.3675162,0.02237055,0.1246359,263,-1071,54
2652.93,4.005844,-8.461109,-0.4022259,-0.3687071,0.3696468,0.01704423,0.1139833,276,-1019,20
2652.934,4.00975,-8.485051,-0.4022259,-0.3399766,0.3621899,0.02130529,0.1075917,333,-990,30
2652.938,4.013656,-8.379706,-0.3399766,-0.2873042,0.3494067,0.02769688,0.09906959,272,-1091,28
2652.941,4.017563,-8.470685,-0.248997,-0.3351882,0.3376888,0.03515373,0.08948221,263,-1049,81
2652.945,4.021469,-8.379706,-0.1388637,-0.3399766,0.3163835,0.06072007,0.0809601,256,-1006,71
2652.949,4.025375,-8.413225,-0.1580173,-0.4022259,0.3025351,0.08628642,0.07882957,226,-998,34
2652.953,4.029281,-8.403648,-0.06703765,-0.4596867,0.2897519,0.108657,0.07669904,258,-1041,26
2652.957,4.033188,-8.42759,0.04788403,-0.4979939,0.2769688,0.1384844,0.07456851,313,-1052,84
2652.961,4.037094,-8.437167,0.09097966,-0.56982,0.2663161,0.1768339,0.07456851,264,-1040,103
2652.965,4.041,-8.432378,0.1005565,-0.7326257,0.2588593,0.2077266,0.07669904,251,-957,21
2652.969,4.044906,-8.465897,0.1580173,-0.9050082,0.2514024,0.237554,0.07563377,293,-1007,49
2652.973,4.048813,-8.57603,0.1532289,-0.8762778,0.2514024,0.257794,0.0777643,292,-1027,30
2652.977,4.052719,-8.753201,0.07661445,-0.5889736,0.2503371,0.2673814,0.07563377,318,-1036,76
2652.98,4.056625,-8.968679,-0.01915361,-0.4309563,0.2428803,0.2567287,0.06924219,220,-1003,76
2652.984,4.060531,-9.222465,-0.225055,-0.5363012,0.2428803,0.2567287,0.05752428,267,-978,49
2652.988,4.064438,-9.418789,-0.3303998,-0.5171476,0.2503371,0.2620551,0.05006743,329,-1061,1
2652.992,4.068344,-9.821015,-0.4357447,-0.4501099,0.2556635,0.2663161,0.04367584,303,-1061,57
2652.996,4.07225,-10.16578,-0.5650316,-0.5746084,0.2535329,0.2684466,0.03195793,275,-1066,65
2653,4.076156,-10.40999,-0.5746084,-0.6847417,0.257794,0.2684466,0.02876214,228,-1004,82
2653.004,4.080063,-10.63983,-0.5793968,-0.7182605,0.2727077,0.2609898,0.02556635,307,-990,39
2653.008,4.083969,-10.88883,-0.593762,-0.6847417,0.2886867,0.2535329,0.02450108,320,-1069,55
2653.012,4.087875,-11.16177,-0.5650316,-0.5985504,0.2918825,0.2396845,0.02450108,280,-1036,104
2653.016,4.091781,-11.26232,-0.5841852,-0.6368576,0.294013,0.2269013,0.02450108,297,-1015,57
2653.02,4.095688,-11.41555,-0.4357447,-0.7182605,0.2759035,0.2130529,0.02343582,220,-1002,47
2653.023,4.099594,-11.54484,-0.3256114,-0.7852981,0.2407498,0.205596,0.02130529,295,-1014,12
2653.027,4.1035,-11.78905,-0.07661445,-0.7374141,0.1970739,0.1928129,0.00958738,268,-1035,47
2653.031,4.107406,-12.04762,0.1436521,-0.8619126,0.181095,0.1704423,-0.004261058,252,-1067,113
2653.035,4.111313,-12.25831,0.3687071,-0.9481039,0.1629855,0.1502023,-0.02769688,273,-1040,87
2653.039,4.115219,-12.55041,0.617704,-1.115698,0.1502023,0.1352886,-0.05858954,254,-1026,18
2653.043,4.119125,-12.89517,0.7805097,-1.355118,0.1416802,0.1171791,-0.1065264,307,-1020,32
2653.047,4.123031,-13.0484,0.9528923,-1.608904,0.1406149,0.1001349,-0.1416802,297,-1058,97
2653.051,4.126938,-13.17769,1.106121,-1.824382,0.1352886,0.0809601,-0.1704423,255,-1024,62
2653.055,4.130844,-13.23036,1.082179,-2.092532,0.1193096,0.05539375,-0.201335,232,-991,57
2653.059,4.13475,-13.26388,0.9768343,-2.312799,0.09906959,0.02769688,-0.2407498,280,-969,38
2653.062,4.138656,-13.10107,0.890643,-2.499547,0.09693906,0.01065264,-0.2673814,276,-1022,89
2653.066,4.142563,-12.91911,0.6607997,-2.705448,0.1075917,0.001065264,-0.2961435,238,-1044,100
2653.07,4.146469,-12.79461,0.4644751,-2.911349,0.1203749,0.003195793,-0.3249057,244,-997,75
2653.074,4.150375,-12.57435,-0.07182605,-3.069367,0.1299623,0.0330232,-0.3675162,234,-1027,42
2653.078,4.154281,-12.31577,-0.3687071,-3.035848,0.1320928,0.05965481,-0.4016047,282,-1034,13
2653.082,4.158188,-12.19127,-0.6224924,-2.992752,0.1267665,0.07882957,-0.4293016,288,-1026,60
2653.086,4.162094,-12.1386,-0.7805097,-2.451662,0.1203749,0.08415589,-0.4474111,252,-1067,71
2653.09,4.166,-12.02847,-0.914585,-1.843535,0.1075917,0.06924219,-0.4655206,213,-993,64
2653.094,4.169906,-12.03805,-0.9624691,-0.2633622,0.07243798,0.04900216,-0.4857606,295,-1010,38
2653.098,4.173813,-12.1386,-0.7757213,2.106897,0.02237055,0.04367584,-0.499609,282,-1051,41
2653.102,4.177719,-12.17212,-0.4357447,2.42772,-0.08202536,0.08735168,-0.5145227,320,-1048,70
2653.105,4.181625,-12.16254,-0.05746084,0.6464344,-0.2002697,0.2503371,-0.5390238,272,-999,93
2653.109,4.185531,-12.80898,0.4596867,0.2537854,-0.1949434,0.5251754,-0.5624596,244,-1013,17
2653.113,4.189438,-13.46499,1.067814,0.7565677,-0.1161138,0.6135923,-0.588026,319,-1049,39
2653.117,4.193344,-13.71878,1.905785,1.130063,-0.09374327,0.5805691,-0.6370281,285,-1031,73
2653.121,4.19725,-13.69483,2.557007,1.063026,-0.1331581,0.4665858,-0.7052051,269,-1056,67
2653.125,4.201156,-13.58949,3.404555,0.7852981,-0.1864213,0.2993393,-0.813862,232,-1026,43
2653.129,4.205063,-13.43147,3.811569,0.7182605,-0.2194445,0.2109224,-0.8969527,313,-972,7
2653.133,4.208969,-13.22078,3.916914,0.6847417,-0.2684466,0.1619202,-0.9779128,266,-1085,22
2653.137,4.212875,-12.86644,3.519476,0.7182605,-0.3185141,0.1533981,-1.032241,310,-1081,81
2653.141,4.216781,-12.5121,2.777274,0.9433155,-0.3323625,0.1704423,-1.056742,266,-1001,37
2653.145,4.220688,-12.28225,2.073379,1.278504,-0.3312972,0.1800297,-1.057808,249,-1023,57
2653.148,4.224594,-11.99495,1.522712,1.407791,-0.3281014,0.169377,-1.043959,292,-987,67
2653.152,4.2285,-11.62624,0.9624691,1.436521,-0.3206446,0.1480718,-1.00561,334,-1075,91
2653.156,4.232406,-11.36288,-0.03351882,1.68073,-0.3355583,0.1043959,-0.9406285,258,-1018,97
2653.16,4.236313,-11.3964,-0.4788403,1.877054,-0.3536678,0.05752428,-0.8916263,229,-991,66
2653.164,4.240219,-11.33894,-0.9768343,1.991976,-0.366451,0.00958738,-0.8490158,233,-1008,16
2653.168,4.244125,-11.48738,-1.158794,2.475605,-0.3621899,-0.02237055,-0.8202536,301,-1084,34
2653.172,4.248031,-11.73159,-1.47004,3.921702,-0.3110572,-0.05858954,-0.773382,317,-1043,80
2653.176,4.251938,-11.9758,-1.752556,4.381389,-0.2897519,-0.07243798,-0.7595335,235,-1034,98
2653.18,4.255844,-11.99016,-2.087744,4.003105,-0.2695119,-0.05752428,-0.7584683,229,-1010,13
2653.184,4.25975,-12.10987,-2.351106,4.185065,-0.2300971,-0.03089267,-0.7712515,316,-982,29
2653.188,4.263656,-12.20564,-2.39899,4.400543,-0.1885518,-0.03834952,-0.7882957,329,-1062,85
2653.191,4.267563,-12.03805,-2.355894,4.237737,-0.1715076,-0.08522115,-0.8000136,275,-1077,79
2653.195,4.271469,-11.70286,-2.260126,3.912126,-0.1800297,-0.1203749,-0.8000136,266,-1030,41
2653.199,4.275375,-11.20965,-2.06859,3.62961,-0.1896171,-0.1257012,-0.7946873,245,-1030,68
2653.203,4.279281,-10.88404,-1.661576,3.768473,-0.1928129,-0.1097222,-0.7829694,339,-1052,45
2653.207,4.283188,-10.4483,-1.106121,3.806781,-0.185356,-0.0809601,-0.753142,297,-1101,89
2653.211,4.287094,-10.23761,-0.6991069,3.725378,-0.169377,-0.05219796,-0.7243798,216,-1035,88
2653.215,4.291,-10.19451,-0.4118027,3.519476,-0.1384844,-0.0181095,-0.6913566,250,-978,26
2653.219,4.294906,-10.18015,-0.3016694,3.409343,-0.112918,0.005326322,-0.6519418,308,-1018,61
2653.223,4.298813,-10.32859,-0.3399766,3.026271,-0.09054748,0.03195793,-0.5933523,324,-1060,55
2653.227,4.302719,-10.54406,-0.4357447,2.796428,-0.08202536,0.04154531,-0.535828,267,-1028,69
2653.23,4.306625,-10.85052,-0.5363012,2.647987,-0.07030745,0.03728426,-0.4655206,237,-1019,114
2653.234,4.310531,-11.18092,-0.6272808,2.403778,-0.06924219,0.02556635,-0.3845605,281,-1023,74
2653.238,4.314438,-11.52569,-0.5793968,2.073379,-0.07563377,0.01278317,-0.2716424,330,-1039,19
2653.242,4.318344,-11.71243,-0.5793968,1.900996,-0.08309063,0.004261058,-0.1864213,317,-1047,67
2653.246,4.32225,-11.8082,-0.5554548,1.68073,-0.08948221,-0.0149137,-0.1054612,236,-1073,105
2653.25,4.326156,-11.83693,-0.593762,1.699883,-0.09267801,-0.03728426,-0.03621899,280,-988,41
2653.254,4.330063,-11.67892,-0.593762,1.522712,-0.09267801,-0.08415589,0.05219796,309,-994,31
2653.258,4.333969,-11.54484,-0.593762,1.393425,-0.08735168,-0.1182444,0.1150486,309,-1045,27
2653.262,4.337875,-11.22402,-0.5363012,1.292869,-0.0809601,-0.1459412,0.1725728,318,-1038,80
2653.266,4.341781,-10.86968,-0.4836287,1.25935,-0.08202536,-0.1661813,0.221575,231,-970,76
2653.27,4.345688,-10.39084,-0.3734955,1.13964,-0.07456851,-0.181095,0.278034,252,-1020,59
2653.273,4.349594,-10.17536,-0.3543418,1.125275,-0.06924219,-0.1832255,0.3078614,313,-1022,13
2653.277,4.3535,-9.998186,-0.3256114,1.029507,-0.06498113,-0.1842907,0.330232,294,-1025,99
2653.281,4.357406,-9.849746,-0.296881,0.9959879,-0.05858954,-0.1768339,0.3430151,284,-1029,40
2653.285,4.361313,-9.710882,-0.2777274,0.9672575,-0.05326322,-0.1672465,0.350472,245,-1004,22
2653.289,4.365219,-9.576807,-0.3256114,0.8858546,-0.04474111,-0.1629855,0.3536678,308,-1023,63
2653.293,4.369125,-9.514557,-0.4261679,0.8619126,-0.03728426,-0.1640507,0.3526025,309,-1094,63
2653.297,4.373031,-9.385271,-0.4596867,0.8044518,-0.02237055,-0.1640507,0.3462109,286,-1077,79
2653.301,4.376938,-9.313444,-0.5841852,0.794875,-0.00958738,-0.1683118,0.3451457,262,-978,69
2653.305,4.380844,-9.02614,-0.7326257,0.7852981,0.006391587,-0.1747034,0.3430151,262,-1007,58
2653.309,4.38475,-8.801085,-0.7038953,0.7852981,0.01704423,-0.1864213,0.3472762,240,-986,56
2653.312,4.388656,-8.580819,-0.7278373,0.8236054,0.02876214,-0.2024002,0.3494067,308,-1066,90
2653.316,4.392563,-8.322245,-0.6943185,0.8523358,0.03515373,-0.2173139,0.3557983,239,-1055,68
2653.32,4.396469,-7.939173,-0.6368576,0.8523358,0.04154531,-0.2386192,0.3611246,229,-985,74
2653.324,4.400375,-7.627926,-0.6368576,0.8140286,0.04367584,-0.2492719,0.3696468,239,-986,22
2653.328,4.404281,-7.268796,-0.5985504,0.8858546,0.05006743,-0.2641856,0.3771036,314,-1052,26
2653.332,4.408188,-6.971915,-0.4596867,0.8954314,0.05006743,-0.2716424,0.3781689,332,-1047,75
2653.336,4.412094,-6.517017,-0.344765,0.890643,0.04367584,-0.2759035,0.3877563,295,-1013,76
2653.34,4.416,-6.234501,-0.1915361,0.9672575,0.03621899,-0.2769688,0.3952131,250,-1025,22
2653.344,4.419906,-5.975927,-0.1340753,0.9097966,0.0298274,-0.2748382,0.3994742,297,-1028,37
2653.348,4.423813,-5.72693,-0.1101333,0.9385271,0.0181095,-0.2705772,0.3984089,293,-1060,99
2653.352,4.427719,-5.559336,0.02873042,0.9097966,0.005326322,-0.2641856,0.3898868,284,-1043,115
2653.355,4.431625,-5.468357,0.1053449,0.9576807,-0.003195793,-0.2535329,0.3834952,269,-1016,78
2653.359,4.435531,-5.430049,0.1436521,0.9337386,-0.02024002,-0.2460761,0.3717773,243,-1018,30
2653.363,4.439438,-5.425261,0.1388637,0.9528923,-0.03515373,-0.2364887,0.3536678,302,-1060,12
2653.367,4.443344,-5.45878,0.2011129,0.8810662,-0.06072007,-0.2087918,0.3249057,270,-999,82
2653.371,4.44725,-5.544971,0.1675941,0.8331822,-0.08415589,-0.1800297,0.3014698,230,-1056,72
2653.375,4.451156,-5.57849,0.1819593,0.7326257,-0.1022654,-0.1576591,0.2748382,251,-1032,40
2653.379,4.455063,-5.702988,0.2202666,0.7230489,-0.1246359,-0.1310275,0.2428803,336,-1000,50
2653.383,4.458969,-5.84664,0.225055,0.6847417,-0.1438107,-0.1033307,0.2098571,263,-1036,-5
2653.387,4.462875,-6.019023,0.3016694,0.6033388,-0.169377,-0.07563377,0.169377,240,-1021,85
2653.391,4.466781,-6.200982,0.2777274,0.6129156,-0.1832255,-0.05539375,0.1352886,260,-979,71
2653.395,4.470688,-6.378153,0.2346318,0.5746084,-0.1949434,-0.04048005,0.1022654,240,-1010,68
2653.398,4.474594,-6.59842,0.2442086,0.5602432,-0.2002697,-0.02343582,0.0660464,281,-1054,42
2653.402,4.4785,-6.785168,0.1436521,0.5363012,-0.2151834,-0.008522115,0.02556635,301,-1063,69
2653.406,4.482406,-6.981492,0.08619126,0.4405331,-0.2290319,0.008522115,0.002130529,235,-1067,84
2653.41,4.486313,-7.211335,-0.04309563,0.4022259,-0.2332929,0.02130529,-0.02237055,226,-1029,15
2653.414,4.490219,-7.383718,-0.1388637,0.3064578,-0.237554,0.02769688,-0.04154531,289,-1022,27
2653.418,4.494125,-7.584831,-0.2394202,0.2442086,-0.2471413,0.03089267,-0.05645902,326,-1026,16
2653.422,4.498031,-7.819463,-0.3303998,0.2106897,-0.2535329,0.03089267,-0.0660464,296,-1040,70
2653.426,4.501938,-8.015787,-0.3782839,0.1197101,-0.257794,0.02769688,-0.07350325,257,-1016,77
2653.43,4.505844,-8.259996,-0.4357447,0.07182605,-0.2609898,0.02450108,-0.07563377,294,-1000,38
2653.434,4.50975,-8.465897,-0.4836287,-0.009576807,-0.2588593,0.008522115,-0.0777643,288,-1002,50
2653.438,4.513656,-8.571242,-0.4884171,-0.1005565,-0.2599245,-0.007456851,-0.07456851,323,-1040,93
2653.441,4.517563,-8.777143,-0.4644751,-0.1771709,-0.2620551,-0.02556635,-0.07669904,254,-1025,84
2653.445,4.521469,-8.90643,-0.4596867,-0.2633622,-0.257794,-0.04261058,-0.07669904,272,-1012,93
2653.449,4.525375,-9.02614,-0.4070143,-0.3399766,-0.2609898,-0.06711166,-0.07456851,311,-1039,77
2653.453,4.529281,-9.083601,-0.3734955,-0.3639187,-0.2620551,-0.08415589,-0.07669904,318,-1041,55
2653.457,4.533188,-9.165004,-0.344765,-0.4213795,-0.2631203,-0.1054612,-0.07563377,306,-1061,95
2653.461,4.537094,-9.255984,-0.1819593,-0.4022259,-0.2652508,-0.1257012,-0.0777643,279,-1045,118
2653.465,4.541,-9.193734,-0.07182605,-0.3830723,-0.2663161,-0.1523328,-0.08309063,260,-1012,30
2653.469,4.544906,-9.232042,0.009576807,-0.4357447,-0.2652508,-0.1672465,-0.08522115,303,-1020,24
2653.473,4.548813,-9.222465,0.01436521,-0.4022259,-0.2599245,-0.1842907,-0.09480853,278,-1058,115
2653.477,4.552719,-9.232042,0.07661445,-0.4261679,-0.2567287,-0.1949434,-0.1001349,259,-1040,50
2653.48,4.556625,-9.14585,0.1819593,-0.4596867,-0.2503371,-0.201335,-0.1043959,241,-1027,75
2653.484,4.560531,-9.160216,0.2777274,-0.4692635,-0.2428803,-0.2077266,-0.112918,243,-1015,55
2653.488,4.564438,-9.131485,0.2394202,-0.4596867,-0.241815,-0.2024002,-0.1171791,325,-1073,50
2653.492,4.568344,-9.112332,0.1867477,-0.5027823,-0.237554,-0.1949434,-0.1214401,292,-1048,89
2653.496,4.57225,-9.016563,0.1197101,-0.5027823,-0.2386192,-0.1842907,-0.128897,268,-978,97
2653.5,4.576156,-8.954314,0.06224924,-0.4979939,-0.237554,-0.1683118,-0.1331581,261,-1023,21
2653.504,4.580063,-8.887277,-0.1149217,-0.4405331,-0.237554,-0.1512675,-0.1352886,295,-1017,26
2653.508,4.583969,-8.896853,-0.1628057,-0.320823,-0.2354234,-0.1331581,-0.1363538,301,-1010,77
2653.512,4.587875,-8.858546,-0.2585738,-0.3303998,-0.2354234,-0.1150486,-0.1363538,264,-1071,65
2653.516,4.591781,-8.815451,-0.3160346,-0.3830723,-0.2428803,-0.0809601,-0.1278317,292,-1026,99
2653.52,4.595688,-8.805874,-0.2633622,-0.5027823,-0.2535329,-0.06178534,-0.1203749,253,-973,48
2653.523,4.599594,-8.805874,-0.4070143,-0.6751649,-0.2620551,-0.04900216,-0.1139833,311,-1015,34
2653.527,4.6035,-8.796297,-0.3782839,-0.7230489,-0.2695119,-0.04261058,-0.1043959,319,-1030,52
2653.531,4.607406,-8.825027,-0.3830723,-0.8858546,-0.2790993,-0.04474111,-0.08735168,295,-1052,62
2653.535,4.611313,-8.882488,-0.3256114,-0.9193734,-0.2897519,-0.05432849,-0.07456851,239,-1016,57
2653.539,4.615219,-8.963891,-0.2681506,-1.096544,-0.3078614,-0.05965481,-0.05858954,332,-1014,48
2653.543,4.619125,-9.155427,-0.1484405,-1.216254,-0.3334278,-0.06178534,-0.04474111,382,-1036,34
2653.547,4.623031,-9.404424,0,-1.302446,-0.3675162,-0.06498113,-0.03408846,263,-1067,89
2653.551,4.626938,-9.533711,0.1197101,-1.297657,-0.3877563,-0.06072007,-0.02876214,249,-972,49
2653.555,4.630844,-9.59596,0.1867477,-1.187524,-0.4005394,-0.05432849,-0.03089267,240,-1017,10
2653.559,4.63475,-9.701305,0.3351882,-1.024718,-0.4079963,-0.03728426,-0.04154531,289,-1065,15
2653.562,4.638656,-9.792285,0.4501099,-0.8379706,-0.4048005,-0.003195793,-0.05539375,287,-1061,85
2653.566,4.642563,-9.773131,0.521936,-0.6655881,-0.4005394,0.03089267,-0.06498113,251,-1060,82
2653.57,4.646469,-9.892841,0.4979939,-0.4357447,-0.3856257,0.06498113,-0.07989483,242,-961,53
2653.574,4.650375,-9.969456,0.5267244,-0.4453215,-0.3611246,0.1012001,-0.09161274,309,-1003,25
2653.578,4.654281,-10.08917,0.4596867,-0.5075708,-0.3430151,0.1406149,-0.1022654,323,-1085,48
2653.582,4.658188,-10.14184,0.06703765,-0.56982,-0.3163835,0.1928129,-0.1139833,313,-1027,88
2653.586,4.662094,-10.24239,-0.248997,-0.5889736,-0.2918825,0.2290319,-0.1203749,240,-1013,103
2653.59,4.666,-10.22803,-0.4548983,-0.6081272,-0.2684466,0.2620551,-0.1171791,280,-1033,57
2653.594,4.669906,-10.31901,-0.6943185,-0.5650316,-0.2503371,0.294013,-0.1065264,344,-1041,60
2653.598,4.673813,-10.39562,-1.01993,-0.6847417,-0.2226403,0.3355583,-0.07882957,270,-1030,89
2653.602,4.677719,-10.52012,-1.244985,-0.7852981,-0.1949434,0.3643204,-0.05113269,286,-1019,68
2653.605,4.681625,-10.6542,-1.37906,-0.818817,-0.165116,0.3771036,-0.01171791,262,-1008,72
2653.609,4.685531,-10.88883,-1.561019,-0.8236054,-0.128897,0.3760383,0.0330232,330,-979,30
2653.613,4.689438,-11.10431,-1.661576,-0.9337386,-0.08628642,0.3557983,0.09693906,345,-1050,38
2653.617,4.693344,-11.36767,-1.690306,-1.024718,-0.06924219,0.3334278,0.1480718,298,-1046,85
2653.621,4.69725,-11.57836,-1.752556,-1.177947,-0.04900216,0.3110572,0.1992044,230,-989,61
2653.625,4.701156,-11.97101,-1.704672,-1.403002,-0.03515373,0.2854909,0.2482066,243,-1014,25
2653.629,4.705063,-12.23916,-1.719037,-1.628057,-0.02663161,0.2567287,0.3110572,327,-1013,53
2653.633,4.708969,-12.5121,-1.632846,-1.900996,-0.01171791,0.237554,0.3547331,328,-1048,102
2653.637,4.712875,-12.86165,-1.594538,-2.135628,0.0149137,0.2130529,0.3888215,263,-1066,76
2653.641,4.716781,-13.01488,-1.532289,-2.466028,0.0330232,0.1906823,0.4143879,223,-1037,81
2653.645,4.720688,-13.22078,-1.426944,-2.892196,0.04367584,0.165116,0.4452805,252,-990,57
2653.648,4.724594,-13.34049,-1.312023,-3.098097,0.04580637,0.144876,0.4644553,295,-1054,12
2653.652,4.7285,-13.36443,-1.187524,-3.366248,0.05432849,0.1267665,0.4772385,316,-1055,93
2653.656,4.732406,-13.34049,-0.9911995,-3.624821,0.05645902,0.1001349,0.4846953,238,-1055,81
2653.66,4.736313,-13.1729,-0.7613561,-3.912126,0.05326322,0.04687164,0.4825648,261,-1022,46
2653.664,4.740219,-13.01488,-0.4692635,-4.31914,0.04261058,-0.001065264,0.4708469,330,-996,34
2653.668,4.744125,-12.83771,-0.2154781,-4.357447,0.0298274,-0.04261058,0.459129,309,-1071,46
2653.672,4.748031,-12.70842,0.1963245,-3.883395,0.02024002,-0.07563377,0.4474111,276,-1082,71
2653.676,4.751938,-12.61265,0.3734955,-2.552219,0.02024002,-0.1033307,0.4335626,270,-1020,95
2653.68,4.755844,-12.52167,0.7613561,-0.5315128,0.04900216,-0.1214401,0.4207795,244,-999,30
2653.684,4.75975,-12.63181,0.7900865,1.345541,0.08309063,-0.08522115,0.4218447,254,-1063,55
2653.688,4.763656,-12.79461,0.7422025,2.03986,0.1331581,0.01597897,0.4282363,273,-1045,94
2653.691,4.767563,-12.86165,0.5889736,0.1101333,0.1523328,0.205596,0.4324974,286,-1032,72
2653.695,4.771469,-13.30218,-0.1580173,-0.3974375,0.06072007,0.4857606,0.4527374,263,-1013,51
2653.699,4.775375,-13.97735,-0.7422025,1.604115,0.002130529,0.5869607,0.4729774,271,-1026,42
2653.703,4.779281,-14.21198,-1.297657,2.42772,0.02237055,0.5571333,0.5060006,332,-1060,43
2653.707,4.783188,-13.69962,-1.747767,1.781286,0.06391587,0.4697816,0.5486112,279,-1057,94
2653.711,4.787094,-13.18726,-2.738967,1.489193,0.1150486,0.3430151,0.6679208,239,-1013,81
2653.715,4.791,-13.1298,-3.423708,1.757344,0.2311624,0.2300971,0.7978831,250,-993,33
2653.719,4.794906,-13.10586,-3.643975,2.06859,0.3653857,0.1171791,0.9321064,294,-1039,89
2653.723,4.798813,-13.10586,-3.423708,2.288857,0.4697816,0.004261058,1.037568,311,-1034,65
2653.727,4.802719,-12.77546,-2.896984,1.881843,0.5049353,-0.1225054,1.104679,242,-1075,59
2653.73,4.806625,-12.22479,-2.715025,1.254562,0.4814995,-0.1629855,1.099353,271,-1017,50
2653.734,4.810531,-11.3964,-2.662352,0.6272808,0.4516721,-0.1533981,1.040763,309,-1016,38
2653.738,4.814438,-10.40999,-2.446874,0.593762,0.4079963,-0.1065264,0.9257148,279,-1033,53
2653.742,4.818344,-9.883264,-1.551443,1.546654,0.3739078,-0.08202536,0.7627293,316,-1070,56
2653.746,4.82225,-9.768343,-0.4309563,2.231396,0.3813647,-0.1374191,0.6689861,209,-1029,71
2653.75,4.826156,-9.739612,1.005565,2.657564,0.3856257,-0.2300971,0.6050702,233,-1011,12
2653.754,4.830063,-9.892841,2.245761,2.801216,0.3696468,-0.3057309,0.5656554,292,-1016,15
2653.758,4.833969,-10.39562,3.213019,2.887407,0.2908172,-0.3153183,0.5390238,300,-1071,62
2653.762,4.837875,-10.99417,3.428497,3.706224,0.2141182,-0.2727077,0.5209143,220,-1047,48
2653.766,4.841781,-11.54963,3.691859,4.07972,0.1587244,-0.2237055,0.5166533,260,-1028,68
2653.77,4.845688,-11.91834,4.113238,4.314351,0.1246359,-0.1768339,0.5241101,316,-989,63
2653.773,4.849594,-12.06678,4.592079,4.52983,0.1001349,-0.1512675,0.5326322,312,-1050,37
2653.777,4.8535,-11.98059,4.812345,4.903325,0.08735168,-0.1608549,0.519849,276,-1038,66
2653.781,4.857406,-11.72201,4.750096,4.898537,0.1033307,-0.181095,0.4900216,246,-1020,114
2653.785,4.861313,-11.33415,4.548983,4.496311,0.1320928,-0.1842907,0.4569984,215,-1039,63
2653.789,4.865219,-11.01812,4.060566,4.266467,0.1640507,-0.1587244,0.4367584,256,-1035,17
2653.793,4.869125,-10.71645,3.160346,4.204218,0.1736381,-0.1075917,0.4346279,249,-1035,106
2653.797,4.873031,-10.47703,2.537854,4.180276,0.1470065,-0.07350325,0.4378237,264,-1041,75
2653.801,4.876938,-10.30464,2.082955,4.036624,0.0958738,-0.05539375,0.44315,234,-1030,71
2653.805,4.880844,-10.14663,1.742979,3.902549,0.04367584,-0.0479369,0.4527374,241,-995,23
2653.809,4.88475,-10.1179,1.249773,3.701436,-0.01171791,-0.04580637,0.459129,303,-1067,48
2653.812,4.888656,-10.22803,0.9816227,3.246537,-0.03621899,0.002130529,0.4612595,296,-1039,78
2653.816,4.892563,-10.36689,0.842759,3.05979,-0.06178534,-0.03728426,0.4538026,232,-1039,72
2653.82,4.896469,-10.69729,0.6751649,2.949656,-0.0660464,-0.03834952,0.4399542,257,-1043,40
2653.824,4.900375,-11.17134,0.5075708,2.715025,-0.07137272,-0.05219796,0.4058658,280,-982,10
2653.828,4.904281,-11.47301,0.2873042,2.466028,-0.06817692,-0.05965481,0.3696468,293,-1049,56
2653.832,4.908188,-11.77468,0.1292869,2.303222,-0.06817692,-0.06498113,0.3376888,241,-1065,62
2653.836,4.912094,-11.90876,-0.02873042,2.193089,-0.07030745,-0.07350325,0.3067962,219,-1015,53
2653.84,4.916,-12.05241,-0.225055,1.944092,-0.06391587,-0.09800433,0.2652508,256,-1022,58
2653.844,4.919906,-12.07156,-0.272939,1.819593,-0.05645902,-0.1320928,0.2300971,260,-1052,34
2653.848,4.923813,-11.90397,-0.3495534,1.747767,-0.03941478,-0.1715076,0.1928129,309,-1031,61
2653.852,4.927719,-11.72201,-0.3974375,1.723825,-0.02876214,-0.2119876,0.149137,190,-1092,123
2653.855,4.931625,-11.42513,-0.3926491,1.632846,-0.0149137,-0.2514024,0.08841695,296,-1016,47
2653.859,4.935531,-11.14261,-0.4644751,1.556231,-0.004261058,-0.2663161,0.04154531,266,-994,3
2653.863,4.939438,-10.91756,-0.4836287,1.584961,0.01278317,-0.2790993,-0.004261058,256,-1034,48
2653.867,4.943344,-10.67335,-0.3926491,1.551443,0.02237055,-0.2950782,-0.04687164,276,-1019,100
2653.871,4.94725,-10.46266,-0.3878607,1.561019,0.0330232,-0.3004046,-0.08522115,249,-1001,60
2653.875,4.951156,-10.17057,-0.344765,1.503559,0.04687164,-0.3078614,-0.1320928,275,-1024,60
2653.879,4.955063,-9.883264,-0.2537854,1.412579,0.06178534,-0.3078614,-0.1576591,289,-989,58
2653.883,4.958969,-9.677363,-0.1723825,1.364695,0.06924219,-0.3089267,-0.185356,274,-1044,66
2653.887,4.962875,-9.428366,-0.1675941,1.244985,0.07989483,-0.3036004,-0.2109224,244,-1079,66
2653.891,4.966781,-9.016563,-0.05267244,1.235408,0.1001349,-0.2993393,-0.2503371,247,-1017,60
2653.895,4.970688,-8.714894,-0.01915361,1.235408,0.1118528,-0.3004046,-0.2748382,327,-1003,55
2653.898,4.974594,-8.384494,0.01915361,1.106121,0.1246359,-0.2929477,-0.309992,304,-1046,27
2653.902,4.9785,-8.092402,-0.01436521,1.063026,0.1427454,-0.2929477,-0.3472762,274,-1048,67
2653.906,4.982406,-7.747637,-0.1244985,1.039084,0.169377,-0.2929477,-0.390952,255,-1040,29
2653.91,4.986313,-7.393295,-0.1628057,0.9193734,0.1832255,-0.294013,-0.4207795,227,-1041,9
2653.914,4.990219,-7.173028,-0.2059013,0.914585,0.1981392,-0.2897519,-0.4527374,298,-1004,63
2653.918,4.994125,-6.876147,-0.1628057,0.8714894,0.2045308,-0.278034,-0.479369,293,-1069,91
2653.922,4.998031,-6.646304,-0.2873042,0.8523358,0.221575,-0.2652508,-0.5145227,250,-1030,69
2653.926,5.001938,-6.47871,-0.3687071,0.8379706,0.2439456,-0.2652508,-0.5368933,261,-1007,68
2653.93,5.005844,-6.344634,-0.4118027,0.7709329,0.2588593,-0.2641856,-0.5528722,246,-990,53
2653.934,5.00975,-6.205771,-0.4644751,0.7278373,0.2652508,-0.2652508,-0.5667207,314,-1077,24
2653.938,5.013656,-6.143521,-0.5075708,0.7134721,0.2748382,-0.2556635,-0.5805691,269,-1036,68
2653.941,5.017563,-6.100426,-0.5985504,0.6560113,0.2844256,-0.2450108,-0.5837649,261,-1052,101
2653.945,5.021469,-6.100426,-0.545878,0.7086837,0.2929477,-0.2407498,-0.5752428,260,-1000,34
2653.949,5.025375,-6.196194,-0.6033388,0.5554548,0.2918825,-0.2311624,-0.5645902,307,-1031,58
2653.953,5.029281,-6.301539,-0.6033388,0.641646,0.2993393,-0.2151834,-0.5454154,299,-1059,27
