t_native_s,t_opt_s,ax,ay,az,gx,gy,gz,mx,my,mz
2483.145,0,-4.299986,4.52983,7.311892,-0.002130529,-0.02450108,-0.0181095,-144,908,1413
2483.148,0.00390625,-4.304775,4.505888,7.31668,0.001065264,-0.02556635,-0.0181095,-92,947,1380
2483.152,0.0078125,-4.314351,4.501099,7.321469,0.001065264,-0.02237055,-0.0181095,-74,912,1431
2483.156,0.01171875,-4.309563,4.534618,7.321469,0,-0.02343582,-0.01704423,-136,903,1445
2483.16,0.015625,-4.280833,4.491522,7.307103,0,-0.02237055,-0.0181095,-122,895,1386
2483.164,0.01953125,-4.328717,4.491522,7.31668,0,-0.02663161,-0.01704423,-116,892,1408
2483.168,0.0234375,-4.299986,4.505888,7.244854,0,-0.02556635,-0.01704423,-110,929,1432
2483.172,0.02734375,-4.323928,4.501099,7.345411,0.002130529,-0.02343582,-0.0181095,-96,876,1414
2483.176,0.03125,-4.285621,4.458003,7.302315,0.001065264,-0.02024002,-0.01704423,-121,901,1398
2483.18,0.03515625,-4.314351,4.501099,7.254431,0,-0.02130529,-0.0181095,-103,930,1370
2483.184,0.0390625,-4.276044,4.510676,7.345411,0,-0.02237055,-0.0149137,-123,923,1429
2483.188,0.04296875,-4.338293,4.496311,7.292738,0.001065264,-0.02343582,-0.0149137,-141,907,1437
2483.191,0.046875,-4.314351,4.443638,7.326257,0,-0.02024002,-0.01597897,-124,932,1429
2483.195,0.05078125,-4.31914,4.46758,7.28795,0,-0.02237055,-0.01597897,-98,939,1431
2483.199,0.0546875,-4.314351,4.52983,7.268796,0.001065264,-0.02343582,-0.0149137,-96,854,1430
2483.203,0.05859375,-4.328717,4.491522,7.302315,0,-0.02556635,-0.0149137,-89,904,1399
2483.207,0.0625,-4.343082,4.453215,7.283161,0,-0.02450108,-0.01384844,-127,917,1403
2483.211,0.06640625,-4.299986,4.486734,7.321469,-0.001065264,-0.02343582,-0.01597897,-93,927,1389
2483.215,0.0703125,-4.22816,4.525041,7.307103,0,-0.02343582,-0.0181095,-125,853,1413
2483.219,0.07421875,-4.314351,4.515464,7.331045,0,-0.02556635,-0.01278317,-120,881,1394
2483.223,0.078125,-4.333505,4.462792,7.326257,0.002130529,-0.02237055,-0.01597897,-149,927,1409
2483.227,0.08203125,-4.31914,4.515464,7.244854,0.001065264,-0.02237055,-0.01704423,-76,898,1384
2483.23,0.0859375,-4.328717,4.520253,7.31668,0.001065264,-0.02130529,-0.01597897,-116,877,1420
2483.234,0.08984375,-4.328717,4.46758,7.254431,0.001065264,-0.02450108,-0.01597897,-94,912,1429
2483.238,0.09375,-4.323928,4.443638,7.302315,0,-0.02450108,-0.01384844,-141,940,1401
2483.242,0.09765625,-4.343082,4.505888,7.340622,0.003195793,-0.02450108,-0.0149137,-122,926,1411
2483.246,0.1015625,-4.299986,4.501099,7.297527,0.002130529,-0.02130529,-0.01278317,-75,920,1423
2483.25,0.1054688,-4.309563,4.496311,7.31668,0.002130529,-0.02237055,-0.01278317,-134,896,1450
2483.254,0.109375,-4.299986,4.491522,7.278373,0.002130529,-0.02450108,-0.01171791,-176,886,1414
2483.258,0.1132812,-4.352659,4.501099,7.292738,0.003195793,-0.02343582,-0.01278317,-132,930,1384
2483.262,0.1171875,-4.343082,4.496311,7.302315,0,-0.02237055,-0.01384844,-73,931,1423
2483.266,0.1210938,-4.357447,4.515464,7.292738,0,-0.02237055,-0.01384844,-99,870,1447
2483.27,0.125,-4.338293,4.496311,7.259219,0.002130529,-0.02343582,-0.01597897,-152,914,1395
2483.273,0.1289062,-4.304775,4.491522,7.331045,0.002130529,-0.02556635,-0.01278317,-101,892,1422
2483.277,0.1328125,-4.280833,4.486734,7.307103,0.002130529,-0.02343582,-0.0149137,-122,879,1415
2483.281,0.1367188,-4.290409,4.534618,7.278373,0,-0.02130529,-0.01278317,-124,914,1419
2483.285,0.140625,-4.261679,4.544195,7.307103,0.001065264,-0.02343582,-0.01278317,-112,907,1399
2483.289,0.1445312,-4.357447,4.491522,7.335834,0.002130529,-0.02556635,-0.01278317,-125,906,1388
2483.293,0.1484375,-4.304775,4.505888,7.254431,0.003195793,-0.01917476,-0.01278317,-130,876,1412
2483.297,0.1523438,-4.299986,4.472369,7.278373,0.004261058,-0.02024002,-0.01278317,-106,910,1445
2483.301,0.15625,-4.247314,4.520253,7.350199,0.004261058,-0.02024002,-0.01384844,-120,941,1408
2483.305,0.1601562,-4.328717,4.477157,7.292738,0.004261058,-0.02343582,-0.0149137,-94,927,1392
2483.309,0.1640625,-4.295198,4.501099,7.335834,0.004261058,-0.02237055,-0.01384844,-103,912,1433
2483.312,0.1679688,-4.299986,4.486734,7.31668,0.006391587,-0.02130529,-0.00958738,-105,887,1413
2483.316,0.171875,-4.266467,4.510676,7.297527,0.004261058,-0.0181095,-0.01384844,-133,941,1411
2483.32,0.1757812,-4.299986,4.520253,7.350199,0.003195793,-0.02024002,-0.01171791,-127,931,1405
2483.324,0.1796875,-4.328717,4.520253,7.268796,0.005326322,-0.02130529,-0.01278317,-119,882,1408
2483.328,0.1835938,-4.333505,4.515464,7.302315,0.005326322,-0.02024002,-0.01278317,-127,905,1389
2483.332,0.1875,-4.328717,4.525041,7.307103,0.003195793,-0.01597897,-0.01278317,-98,903,1409
2483.336,0.1914062,-4.323928,4.477157,7.28795,0.005326322,-0.01917476,-0.01065264,-94,937,1391
2483.34,0.1953125,-4.309563,4.52983,7.340622,0.004261058,-0.02237055,-0.01171791,-116,892,1448
2483.344,0.1992188,-4.309563,4.520253,7.340622,0.005326322,-0.02130529,-0.0149137,-93,898,1414
2483.348,0.203125,-4.299986,4.486734,7.321469,0.002130529,-0.02024002,-0.01171791,-110,930,1382
2483.352,0.2070312,-4.276044,4.510676,7.278373,0.003195793,-0.01917476,-0.01171791,-81,909,1398
2483.355,0.2109375,-4.261679,4.52983,7.311892,0.004261058,-0.02130529,-0.01171791,-122,895,1422
2483.359,0.2148438,-4.299986,4.458003,7.302315,0.004261058,-0.02343582,-0.01171791,-125,917,1426
2483.363,0.21875,-4.252102,4.477157,7.335834,0.004261058,-0.02343582,-0.01171791,-127,918,1394
2483.367,0.2226562,-4.290409,4.510676,7.359776,0.005326322,-0.02024002,-0.01171791,-115,928,1407
2483.371,0.2265625,-4.271256,4.491522,7.28795,0.004261058,-0.02130529,-0.01065264,-102,880,1428
2483.375,0.2304688,-4.314351,4.501099,7.321469,0.004261058,-0.02343582,-0.01384844,-161,883,1403
2483.379,0.234375,-4.328717,4.491522,7.331045,0.005326322,-0.02343582,-0.01065264,-110,886,1383
2483.383,0.2382812,-4.285621,4.491522,7.292738,0.003195793,-0.02343582,-0.01171791,-124,908,1387
2483.387,0.2421875,-4.295198,4.520253,7.331045,0.003195793,-0.01917476,-0.01171791,-103,893,1427
2483.391,0.2460938,-4.333505,4.453215,7.311892,0.002130529,-0.0181095,-0.01171791,-161,885,1410
2483.395,0.25,-4.309563,4.400543,7.283161,0.005326322,-0.02130529,-0.01065264,-72,901,1408
2483.398,0.2539062,-4.357447,4.367024,7.374141,0.01065264,-0.02343582,-0.01384844,-122,909,1408
2483.402,0.2578125,-4.367024,4.371812,7.326257,0.00958738,-0.02237055,-0.01597897,-127,943,1403
2483.406,0.2617188,-4.22816,4.43885,7.369353,0.01278317,-0.02343582,-0.01704423,-102,910,1452
2483.41,0.265625,-4.213795,4.496311,7.331045,0.01278317,-0.02450108,-0.01917476,-118,912,1399
2483.414,0.2695312,-4.223372,4.568137,7.273585,0.01171791,-0.02237055,-0.02450108,-98,908,1398
2483.418,0.2734375,-4.266467,4.553772,7.273585,0.007456851,-0.02024002,-0.02450108,-88,860,1442
2483.422,0.2773438,-4.352659,4.453215,7.326257,0.004261058,-0.01597897,-0.02450108,-111,893,1429
2483.426,0.28125,-4.371812,4.424485,7.340622,0.005326322,-0.02130529,-0.02130529,-128,898,1417
2483.43,0.2851562,-4.31914,4.386177,7.369353,0.007456851,-0.02237055,-0.0181095,-87,929,1406
2483.434,0.2890625,-4.395754,4.462792,7.206547,0.01704423,-0.01597897,-0.0149137,-75,885,1410
2483.438,0.2929688,-4.405331,4.434061,7.297527,0.004261058,-0.02556635,-0.00958738,-126,910,1420
2483.441,0.296875,-4.304775,4.55856,7.350199,0.006391587,-0.03089267,-0.006391587,-82,931,1398
2483.445,0.3007812,-4.266467,4.510676,7.369353,0.01065264,-0.02343582,-0.008522115,-117,981,1380
2483.449,0.3046875,-4.271256,4.285621,7.259219,0.01171791,-0.01704423,-0.01597897,-100,917,1403
2483.453,0.3085938,-4.314351,4.232949,7.37893,0.03515373,-0.01704423,-0.02237055,-96,895,1430
2483.457,0.3125,-4.285621,4.276044,7.398083,0.01171791,-0.00958738,-0.02556635,-171,935,1399
2483.461,0.3164062,-4.122815,4.386177,7.393295,0.01597897,-0.008522115,-0.02024002,-108,909,1408
2483.465,0.3203125,-4.194641,4.34787,7.235277,0.03089267,-0.001065264,-0.02130529,-106,933,1451
2483.469,0.3242188,-4.271256,4.750096,7.177817,0.01171791,-0.006391587,-0.02556635,-104,923,1416
2483.473,0.328125,-4.458003,4.58729,7.364564,0.02769688,0.003195793,-0.01065264,-108,912,1386
2483.477,0.3320312,-4.443638,4.371812,7.431602,0.01597897,-0.002130529,-0.006391587,-100,930,1424
2483.48,0.3359375,-4.285621,4.525041,7.220912,0.02343582,-0.01704423,-0.01384844,-99,938,1453
2483.484,0.3398438,-4.256891,4.692635,7.311892,0.0298274,-0.007456851,-0.007456851,-143,865,1424
2483.488,0.34375,-4.209007,4.429273,7.31668,0.01917476,0.01065264,0,-133,912,1389
2483.492,0.3476562,-4.328717,4.07972,7.321469,0.0298274,0.02556635,-0.002130529,-151,930,1386
2483.496,0.3515625,-4.43885,4.13718,7.551312,0.03834952,0.02237055,0.002130529,-108,888,1426
2483.5,0.3554688,-4.276044,4.132392,7.359776,0.0479369,0.006391587,0.002130529,-120,923,1423
2483.504,0.359375,-4.213795,4.323928,7.374141,0.06711166,0.02663161,0.004261058,-80,916,1448
2483.508,0.3632812,-4.333505,4.453215,7.359776,0.05539375,0.0298274,0.0149137,-146,943,1404
2483.512,0.3671875,-4.381389,4.376601,7.311892,0.06072007,0.0298274,0.02024002,-131,896,1469
2483.516,0.3710938,-4.362235,4.462792,7.187393,0.06498113,0.04154531,0.01917476,-153,902,1428
2483.52,0.375,-4.381389,4.371812,7.388506,0.07563377,0.03408846,0.02130529,-107,895,1392
2483.523,0.3789062,-4.429273,3.969586,7.28795,0.08735168,0.03728426,0.02663161,-109,953,1398
2483.527,0.3828125,-4.323928,4.841076,7.383718,0.07669904,0.01917476,0.03089267,-123,900,1413
2483.531,0.3867188,-4.285621,5.161899,7.192182,0.09693906,0.003195793,0.04367584,-132,897,1399
2483.535,0.390625,-4.252102,4.625598,7.225701,0.06391587,0.03515373,0.04474111,-131,918,1407
2483.539,0.3945312,-4.223372,4.453215,7.177817,0.06391587,0.02130529,0.02024002,-97,934,1423
2483.543,0.3984375,-4.333505,4.788403,7.129933,0.0809601,0.01065264,0.00958738,-93,871,1461
2483.547,0.4023438,-4.43885,4.903325,7.216124,0.06178534,0.02450108,0.02663161,-67,917,1451
2483.551,0.40625,-4.410119,4.333505,7.235277,0.07030745,0.04687164,0.04474111,-94,888,1405
2483.555,0.4101562,-4.510676,4.218583,7.479486,0.1107875,0.04900216,0.05113269,-108,918,1401
2483.559,0.4140625,-4.501099,4.252102,7.49864,0.1043959,0.04154531,0.05858954,-89,909,1425
2483.562,0.4179688,-4.390966,4.175488,7.331045,0.108657,0.04687164,0.06817692,-115,920,1445
2483.566,0.421875,-4.237737,4.46758,7.326257,0.1203749,0.04154531,0.06817692,-105,922,1390
2483.57,0.4257812,-4.161122,4.692635,7.216124,0.1139833,0.03834952,0.0628506,-87,877,1400
2483.574,0.4296875,-4.256891,4.778827,7.158663,0.108657,0.05219796,0.06498113,-100,912,1448
2483.578,0.4335938,-4.290409,4.735731,7.225701,0.09800433,0.05965481,0.0628506,-117,923,1425
2483.582,0.4375,-4.333505,4.659116,7.220912,0.1033307,0.05432849,0.06072007,-131,910,1432
2483.586,0.4414062,-4.295198,4.774038,7.192182,0.1012001,0.04474111,0.05539375,-113,872,1412
2483.59,0.4453125,-4.290409,4.817134,7.144298,0.09267801,0.03941478,0.05113269,-122,931,1454
2483.594,0.4492188,-4.299986,4.850653,7.091625,0.07882957,0.04474111,0.04048005,-95,907,1462
2483.598,0.453125,-4.314351,4.879383,7.120356,0.06924219,0.03728426,0.03728426,-68,932,1402
2483.602,0.4570312,-4.323928,4.893748,7.082049,0.05965481,0.0330232,0.03621899,-81,940,1392
2483.605,0.4609375,-4.304775,4.821922,7.144298,0.05645902,0.0298274,0.03834952,-107,894,1467
2483.609,0.4648438,-4.280833,4.697424,7.187393,0.05752428,0.03408846,0.03408846,-122,882,1412
2483.613,0.46875,-4.386177,4.663905,7.220912,0.05645902,0.03728426,0.03621899,-159,921,1375
2483.617,0.4726562,-4.424485,4.635174,7.244854,0.05752428,0.03728426,0.04154531,-89,926,1427
2483.621,0.4765625,-4.414908,4.52983,7.230489,0.06072007,0.03195793,0.04261058,-93,922,1415
2483.625,0.4804688,-4.343082,4.520253,7.259219,0.0628506,0.02237055,0.04474111,-104,915,1421
2483.629,0.484375,-4.276044,4.606444,7.187393,0.05858954,0.02343582,0.04154531,-146,903,1421
2483.633,0.4882812,-4.261679,4.625598,7.230489,0.05113269,0.02343582,0.04367584,-126,941,1416
2483.637,0.4921875,-4.31914,4.520253,7.177817,0.05006743,0.02024002,0.03941478,-116,927,1415
2483.641,0.4960938,-4.338293,4.668693,7.19697,0.0479369,0.01171791,0.0330232,-105,904,1438
2483.645,0.5,-4.314351,4.707,7.149086,0.04474111,0.01278317,0.02876214,-111,919,1405
2483.648,0.5039062,-4.338293,4.721366,7.192182,0.0330232,0.02024002,0.03408846,-132,874,1422
2483.652,0.5078125,-4.314351,4.544195,7.19697,0.03195793,0.01704423,0.0330232,-83,890,1397
2483.656,0.5117188,-4.333505,4.515464,7.254431,0.0330232,0.006391587,0.0330232,-135,950,1451
2483.66,0.515625,-4.386177,4.687847,7.206547,0.03195793,-0.004261058,0.02876214,-125,930,1391
2483.664,0.5195312,-4.371812,4.563348,7.158663,0.03089267,0.004261058,0.03089267,-84,873,1413
2483.668,0.5234375,-4.414908,4.477157,7.177817,0.02450108,0.01278317,0.03728426,-98,931,1390
2483.672,0.5273438,-4.434061,4.458003,7.220912,0.02343582,0.002130529,0.04154531,-96,928,1443
2483.676,0.53125,-4.376601,4.477157,7.206547,0.02556635,-0.004261058,0.04261058,-115,905,1379
2483.68,0.5351562,-4.323928,4.505888,7.235277,0.02343582,-0.005326322,0.04048005,-112,903,1390
2483.684,0.5390625,-4.161122,4.58729,7.158663,0.01917476,-0.006391587,0.03621899,-113,898,1433
2483.688,0.5429688,-4.161122,4.750096,7.120356,0.01597897,-0.007456851,0.03621899,-129,943,1449
2483.691,0.546875,-4.065354,4.592079,7.010222,0.01065264,0,0.02450108,-117,892,1396
2483.695,0.5507812,-3.782839,4.266467,7.259219,0.0181095,0.03089267,0.01597897,-116,927,1440
2483.699,0.5546875,-3.983952,4.084508,7.426814,0.01704423,0.05006743,0.01597897,-133,904,1429
2483.703,0.5585938,-4.309563,3.86903,7.422025,0.01917476,0.06817692,0.01704423,-85,919,1418
2483.707,0.5625,-4.625598,3.835511,7.565677,0.04367584,0.06711166,0.02450108,-145,892,1404
2483.711,0.5664062,-4.52983,3.945644,7.493851,0.07030745,0.03941478,0.02556635,-108,914,1378
2483.715,0.5703125,-4.055778,4.189853,7.398083,0.09054748,0.03089267,0.01917476,-114,913,1450
2483.719,0.5742188,-3.821146,4.472369,7.254431,0.08841695,0.03195793,0.004261058,-113,937,1405
2483.723,0.578125,-3.864241,4.625598,7.134721,0.08309063,0.05006743,-0.0149137,-83,928,1381
2483.727,0.5820312,-4.113238,4.424485,7.072472,0.08415589,0.07350325,-0.02343582,-166,921,1393
2483.73,0.5859375,-4.156334,4.194641,7.19697,0.08522115,0.08948221,-0.0330232,-114,924,1394
2483.734,0.5898438,-4.252102,4.185065,7.536947,0.08202536,0.07989483,-0.04687164,-112,896,1412
2483.738,0.59375,-4.299986,4.022259,7.321469,0.09480853,0.06817692,-0.06498113,-144,942,1362
2483.742,0.5976562,-4.256891,4.146757,7.335834,0.1225054,0.07989483,-0.08202536,-112,899,1393
2483.746,0.6015625,-4.007894,4.390966,7.493851,0.1438107,0.0777643,-0.08841695,-118,896,1420
2483.75,0.6054688,-4.007894,4.458003,7.383718,0.1608549,0.07669904,-0.1012001,-121,947,1428
2483.754,0.609375,-3.845088,4.357447,7.354988,0.1544633,0.09054748,-0.1342233,-77,903,1391
2483.758,0.6132812,-3.677494,4.343082,7.240066,0.1800297,0.1225054,-0.1874865,-92,898,1397
2483.762,0.6171875,-3.634398,4.362235,7.479486,0.2173139,0.1619202,-0.2130529,-109,893,1427
2483.766,0.6210938,-3.505111,4.261679,7.565677,0.2450108,0.2098571,-0.2322276,-124,935,1415
2483.77,0.625,-3.347094,4.314351,7.52737,0.2918825,0.2716424,-0.2588593,-135,950,1396
2483.773,0.6289062,-2.99754,4.845864,7.331045,0.3462109,0.3408846,-0.2833603,-128,892,1409
2483.777,0.6328125,-2.892196,6.090849,7.019799,0.3994742,0.4239752,-0.3355583,-113,909,1421
2483.781,0.6367188,-3.050213,6.742072,6.847417,0.4293016,0.5187838,-0.3430151,-128,868,1406
2483.785,0.640625,-3.366248,7.623138,6.732495,0.4495416,0.6125271,-0.330232,-137,941,1393
2483.789,0.6445312,-3.433285,8.12592,6.665457,0.4825648,0.6838998,-0.3547331,-92,907,1391
2483.793,0.6484375,-3.428497,8.609549,6.560113,0.5581986,0.7584683,-0.4495416,-111,867,1430
2483.797,0.6523438,-3.548207,8.360552,6.464344,0.6072007,0.8309063,-0.5283712,-121,906,1412
2483.801,0.65625,-3.610456,7.824251,6.464344,0.6412892,0.9342369,-0.5826996,-112,912,1395
2483.805,0.6601562,-3.830723,7.493851,6.651092,0.700944,1.037568,-0.6221144,-160,903,1383
2483.809,0.6640625,-4.477157,6.794744,9.461885,0.6700513,1.144094,-0.6562029,-120,875,1418
2483.812,0.6679688,-5.233725,6.569689,7.182605,0.4399542,1.235707,-0.6657903,-145,882,1410
2483.816,0.671875,-6.138733,7.412448,6.315904,0.5709817,1.389105,-0.6902914,-105,902,1433
2483.82,0.6757812,-5.324704,5.975927,8.489839,0.6359629,1.528654,-0.8064052,-87,861,1404
2483.824,0.6796875,-5.21936,7.187393,9.045294,0.5081311,1.506284,-0.8639295,-77,881,1402
2483.828,0.6835938,-4.711789,8.279149,7.747637,0.3547331,1.634116,-0.813862,-118,920,1439
2483.832,0.6875,-4.165911,6.579266,8.379706,0.2673814,1.884453,-0.8522115,-80,924,1406
2483.836,0.6914062,-4.007894,4.750096,8.781932,0.2087918,1.987783,-1.020523,-91,896,1403
2483.84,0.6953125,-4.668693,5.286397,8.513781,0.2759035,1.994175,-1.211206,-87,888,1427
2483.844,0.6992188,-5.492299,6.689399,9.471462,0.2460761,2.049569,-1.269795,-101,919,1436
2483.848,0.703125,-5.707777,7.790732,9.959879,0.1033307,2.109224,-1.315602,-82,926,1443
2483.852,0.7070312,-5.224148,7.508216,8.944737,-0.002130529,2.181662,-1.385909,-95,876,1401
2483.855,0.7109375,-4.601656,6.081272,8.370129,-0.01384844,2.348908,-1.48924,-139,866,1449
2483.859,0.7148438,-4.936844,5.530606,8.686164,-0.03515373,2.430933,-1.588309,-132,917,1447
2483.863,0.71875,-5.798756,5.904101,8.858546,-0.0777643,2.437325,-1.686314,-110,921,1433
2483.867,0.7226562,-6.890512,6.756437,8.69574,-0.09374327,2.419216,-1.7726,-103,900,1438
2483.871,0.7265625,-8.552088,7.594408,8.987833,-0.0660464,2.372344,-1.852495,-87,874,1464
2483.875,0.7304688,-8.949526,8.418013,9.581595,-0.05006743,2.273274,-1.886583,-109,912,1480
2483.879,0.734375,-9.35654,8.882488,9.160216,0.007456851,2.147573,-1.879126,-100,943,1418
2483.883,0.7382812,-10.11311,8.437167,8.221689,0.2514024,2.057026,-1.793905,-95,884,1404
2483.887,0.7421875,-10.54406,8.025364,9.303868,0.6029397,1.832255,-1.646899,-88,852,1460
2483.891,0.7460938,-10.74039,7.671022,9.471462,0.7701862,1.611745,-1.544633,-77,890,1422
2483.895,0.75,-10.49618,7.010222,8.06846,0.9512811,1.394431,-1.476457,-105,889,1425
2483.898,0.7539062,-9.979033,6.962338,7.800309,1.141963,1.241033,-1.460478,-103,897,1425
2483.902,0.7578125,-8.853758,8.145074,8.327033,1.023719,1.045024,-1.533981,-69,917,1423
2483.906,0.7617188,-7.790732,9.14585,6.976704,0.8735168,0.9214537,-1.584048,-71,912,1452
2483.91,0.765625,-7.273585,9.188946,6.23929,0.7808388,0.8596684,-1.574461,-82,890,1415
2483.914,0.7695312,-7.096414,8.724471,6.574478,0.6562029,0.809601,-1.565939,-95,876,1432
2483.918,0.7734375,-7.230489,9.303868,7.64708,0.366451,0.7158577,-1.596831,-54,893,1464
2483.922,0.7773438,-6.756437,10.01734,7.843405,0.002130529,0.5145227,-1.564873,-82,933,1440
2483.926,0.78125,-5.832275,9.71567,7.608773,-0.1970739,0.3600594,-1.466869,-78,896,1452
2483.93,0.7851562,-4.67827,8.207323,7.019799,-0.3089267,0.2535329,-1.41041,-73,869,1417
2483.934,0.7890625,-3.56736,7.532158,7.04853,-0.3973436,0.1704423,-1.439172,-109,902,1444
2483.938,0.7929688,-1.403002,8.164228,6.569689,-0.5230448,0.02450108,-1.383779,-90,916,1437
2483.941,0.796875,0.04788403,9.107543,6.584055,-0.5592638,-0.0777643,-1.185639,-89,887,1409
2483.945,0.8007812,1.28808,9.849746,5.985504,-0.6743124,-0.1225054,-0.9640643,-69,848,1450
2483.949,0.8046875,1.417367,9.710882,6.397307,-0.7542072,-0.1182444,-0.8117315,-96,864,1443
2483.953,0.8085938,1.623269,8.772355,5.899313,-0.8042746,-0.1342233,-0.7265103,-99,853,1462
2483.957,0.8125,1.575385,7.034164,4.563348,-0.6583334,-0.149137,-0.6838998,-108,918,1425
2483.961,0.8164062,1.513135,5.975927,5.272032,-0.4729774,-0.1235707,-0.6785734,-78,916,1441
2483.965,0.8203125,1.398214,7.244854,7.345411,-0.4101268,-0.1949434,-0.6274408,-113,878,1455
2483.969,0.8242188,1.28808,9.107543,6.454768,-0.4889564,-0.4122573,-0.3398194,-84,898,1436
2483.973,0.828125,1.503559,8.657433,5.525817,-0.3845605,-0.4569984,-0.07030745,-99,886,1443
2483.977,0.8320312,2.092532,7.283161,5.257667,-0.2769688,-0.4665858,0.04048005,-70,918,1450
2483.98,0.8359375,3.011906,6.23929,5.075708,-0.2428803,-0.4772385,-0.004261058,-82,898,1461
2483.984,0.8398438,3.610456,6.38773,5.133168,-0.2673814,-0.4761732,-0.04048005,-88,885,1429
2483.988,0.84375,3.375824,6.895301,5.329493,-0.3238404,-0.4846953,0.02769688,-120,916,1434
2483.992,0.8476562,2.762909,6.933608,5.209783,-0.3536678,-0.4921522,0.1150486,-87,828,1412
2483.996,0.8515625,2.303222,6.703765,5.21936,-0.3398194,-0.5006743,0.1544633,-84,875,1447
2484,0.8554688,2.288857,6.464344,5.468357,-0.314253,-0.5326322,0.1715076,-80,897,1444
2484.004,0.859375,2.475605,6.440402,5.679046,-0.3153183,-0.5731123,0.1928129,-88,899,1442
2484.008,0.8632812,2.585738,6.555324,5.621585,-0.3312972,-0.6029397,0.2269013,-90,862,1418
2484.012,0.8671875,2.475605,6.679823,5.736507,-0.3376888,-0.6146576,0.2620551,-66,877,1436
2484.016,0.8710938,2.126051,6.823475,6.014235,-0.3355583,-0.6338323,0.3238404,-91,913,1407
2484.02,0.875,1.742979,6.71813,6.258443,-0.3131877,-0.6679208,0.3930826,-89,879,1438
2484.023,0.8789062,1.450886,6.62715,6.517017,-0.2695119,-0.7243798,0.4676511,-75,884,1417
2484.027,0.8828125,1.35033,6.41646,6.59842,-0.2258361,-0.7850999,0.5368933,-106,889,1426
2484.031,0.8867188,1.307234,6.445191,6.636727,-0.1565939,-0.8628642,0.6274408,-74,915,1462
2484.035,0.890625,1.240196,6.651092,6.694188,-0.1001349,-0.9086706,0.7105314,-85,889,1420
2484.039,0.8945312,1.015142,6.71813,6.684611,-0.04048005,-0.9566075,0.7978831,-87,874,1411
2484.043,0.8984375,0.6703765,6.742072,6.813898,0.01704423,-0.9928265,0.8894958,-72,896,1442
2484.047,0.9023438,0.2777274,6.660669,6.871359,0.0777643,-1.037568,0.978978,-64,902,1448
2484.051,0.90625,0.05746084,6.694188,6.95755,0.1470065,-1.104679,1.098288,-96,900,1410
2484.055,0.9101562,-0.04788403,6.804321,6.785168,0.1917476,-1.153681,1.171791,-81,863,1412
2484.059,0.9140625,-0.1197101,6.943185,6.617573,0.221575,-1.183509,1.245294,-77,880,1453
2484.062,0.9179688,-0.248997,6.885724,6.540959,0.2535329,-1.198422,1.315602,-84,878,1432
2484.066,0.921875,-0.6129156,6.847417,6.531382,0.278034,-1.21014,1.401888,-108,914,1443
2484.07,0.9257812,-0.866701,6.742072,6.579266,0.3046656,-1.225054,1.457282,-95,880,1452
2484.074,0.9296875,-1.134852,6.694188,6.536171,0.3185141,-1.235707,1.498827,-91,877,1448
2484.078,0.9335938,-1.37906,6.713341,6.469133,0.3355583,-1.233576,1.543568,-97,871,1410
2484.082,0.9375,-1.781286,6.670246,6.421249,0.3557983,-1.217597,1.602158,-113,887,1439
2484.086,0.9414062,-1.924938,6.655881,6.421249,0.3717773,-1.205879,1.647964,-119,876,1399
2484.09,0.9453125,-2.226608,6.617573,6.512229,0.3962784,-1.197357,1.682053,-75,883,1461
2484.094,0.9492188,-2.437297,6.62715,6.502652,0.4079963,-1.181378,1.715076,-86,930,1424
2484.098,0.953125,-2.806004,6.641515,6.603208,0.4250405,-1.153681,1.756621,-84,899,1417
2484.102,0.9570312,-3.189077,6.603208,6.71813,0.4442153,-1.132376,1.785383,-84,875,1436
2484.105,0.9609375,-3.557784,6.636727,6.828263,0.4569984,-1.117462,1.821602,-113,886,1418
2484.109,0.9648438,-3.840299,6.651092,6.924031,0.4740427,-1.107875,1.856756,-105,904,1453
2484.113,0.96875,-4.242525,6.789956,6.991069,0.499609,-1.0887,1.901497,-122,924,1401
2484.117,0.9726562,-4.424485,6.74686,7.043741,0.5134575,-1.072721,1.929194,-122,907,1412
2484.121,0.9765625,-4.639963,6.722918,7.19697,0.5251754,-1.052481,1.964348,-97,901,1451
2484.125,0.9804688,-4.841076,6.71813,7.268796,0.5454154,-1.033307,1.990979,-98,941,1440
2484.129,0.984375,-5.238513,6.679823,7.455544,0.5613944,-1.014132,2.024002,-82,916,1432
2484.133,0.9882812,-5.497087,6.756437,7.565677,0.5709817,-0.9928265,2.048504,-99,876,1423
2484.137,0.9921875,-5.770026,6.818686,7.85777,0.6018744,-0.9693906,2.081527,-73,863,1425
2484.141,0.9960938,-6.191405,6.971915,8.178593,0.6317018,-0.9640643,2.123072,-118,883,1420
2484.145,1,-6.991069,7.230489,8.66701,0.6838998,-0.9779128,2.198706,-148,909,1430
2484.148,1.003906,-7.5561,7.465121,8.983045,0.716923,-1.001349,2.269013,-99,877,1412
2484.152,1.007812,-8.030152,7.73806,9.203311,0.7520767,-1.043959,2.347843,-128,871,1389
2484.156,1.011719,-8.269573,7.94875,9.346963,0.7872304,-1.083374,2.427738,-119,901,1428
2484.16,1.015625,-8.446743,8.178593,9.557653,0.7978831,-1.155812,2.528938,-160,913,1359
2484.164,1.019531,-8.33661,8.18817,9.323021,0.777643,-1.204814,2.587527,-119,884,1389
2484.168,1.023438,-8.202535,8.116344,9.050082,0.7467504,-1.23038,2.628007,-113,860,1443
2484.172,1.027344,-8.001422,7.814674,8.848969,0.6998787,-1.242098,2.652508,-124,889,1415
2484.176,1.03125,-7.800309,7.283161,8.480262,0.6317018,-1.243164,2.671683,-110,902,1341
2484.18,1.035156,-7.714118,6.742072,8.236054,0.5901565,-1.233576,2.662096,-105,909,1434
2484.184,1.039062,-7.694964,6.339846,7.991845,0.551807,-1.216532,2.636529,-91,884,1408
2484.188,1.042969,-7.64708,6.023811,7.723695,0.5177185,-1.18777,2.603506,-100,905,1391
2484.191,1.046875,-7.680599,5.760449,7.580042,0.5006743,-1.160073,2.564091,-149,910,1394
2484.195,1.050781,-7.814674,5.57849,7.43639,0.4846953,-1.116397,2.508698,-131,861,1399
2484.199,1.054688,-7.958326,5.554548,7.345411,0.4729774,-1.081243,2.465022,-133,857,1437
2484.203,1.058594,-8.30788,5.60722,7.321469,0.4601942,-1.053547,2.41815,-103,891,1431
2484.207,1.0625,-8.470685,5.674258,7.283161,0.4484763,-1.024784,2.371279,-139,919,1418
2484.211,1.066406,-8.714894,5.755661,7.153875,0.4293016,-0.9917612,2.307363,-106,894,1385
2484.215,1.070312,-8.853758,5.66947,6.967127,0.4090615,-0.9715212,2.258361,-166,889,1427
2484.219,1.074219,-9.030929,5.540183,6.785168,0.3824299,-0.9523464,2.208293,-144,907,1409
2484.223,1.078125,-9.141062,5.406107,6.631939,0.350472,-0.9289106,2.15503,-145,905,1374
2484.227,1.082031,-9.380482,5.114015,6.430826,0.314253,-0.9086706,2.068744,-121,928,1364
2484.23,1.085938,-9.519346,4.869806,6.220136,0.2897519,-0.8894958,1.99311,-177,895,1432
2484.234,1.089844,-9.619902,4.611232,6.066907,0.2599245,-0.8724516,1.917476,-160,943,1390
2484.238,1.09375,-9.725247,4.31914,5.803545,0.2482066,-0.8554073,1.839712,-174,962,1393
2484.242,1.097656,-9.964667,3.825934,5.659893,0.2354234,-0.8213189,1.733185,-189,914,1404
2484.246,1.101562,-10.02692,3.543418,5.497087,0.2364887,-0.8000136,1.650095,-148,907,1394
2484.25,1.105469,-10.18972,3.227384,5.468357,0.2396845,-0.7829694,1.567004,-145,905,1408
2484.254,1.109375,-10.29986,3.011906,5.334281,0.2567287,-0.7669904,1.490305,-178,944,1364
2484.258,1.113281,-10.50576,2.75812,5.257667,0.2929477,-0.7339672,1.396562,-112,929,1373
2484.262,1.117188,-10.67814,2.499547,5.33907,0.3227751,-0.7158577,1.346494,-177,897,1411
2484.266,1.121094,-10.71166,2.365471,5.33907,0.3547331,-0.7105314,1.297492,-162,927,1434
2484.27,1.125,-10.74518,2.327164,5.195418,0.3941478,-0.7126619,1.254882,-187,927,1384
2484.273,1.128906,-10.56322,2.418144,5.104438,0.4175837,-0.6966829,1.196292,-139,934,1387
2484.277,1.132812,-10.30464,2.446874,4.946421,0.4143879,-0.680704,1.150486,-150,927,1411
2484.281,1.136719,-10.00297,2.336741,4.812345,0.386691,-0.6402239,1.100418,-205,945,1417
2484.285,1.140625,-9.667786,2.106897,4.620809,0.3430151,-0.5933523,1.040763,-186,932,1387
2484.289,1.144531,-9.366117,1.982399,4.328717,0.2663161,-0.5262406,0.9555422,-132,908,1341
2484.293,1.148438,-9.289502,1.819593,4.175488,0.201335,-0.4538026,0.8937569,-133,926,1432
2484.297,1.152344,-9.414001,1.671153,4.084508,0.1267665,-0.3760383,0.8309063,-188,905,1376
2484.301,1.15625,-9.682152,1.532289,4.012682,0.04900216,-0.3057309,0.7595335,-158,925,1418
2484.305,1.160156,-10.07001,1.273715,3.845088,-0.05113269,-0.2109224,0.6519418,-200,886,1365
2484.309,1.164062,-10.39562,1.106121,3.744531,-0.112918,-0.1438107,0.5699165,-156,911,1405
2484.312,1.167969,-10.67814,0.8331822,3.620033,-0.1608549,-0.0777643,0.4910869,-185,963,1387
2484.316,1.171875,-11.00375,0.6847417,3.557784,-0.2173139,-0.00958738,0.4165184,-203,945,1381
2484.32,1.175781,-11.38682,0.4692635,3.490746,-0.2886867,0.06498113,0.334493,-152,905,1366
2484.324,1.179688,-11.66455,0.4070143,3.557784,-0.3334278,0.108657,0.2119876,-139,924,1414
2484.328,1.183594,-12.07156,0.3112462,3.600879,-0.4016047,0.1523328,0.1033307,-187,948,1381
2484.332,1.1875,-12.37323,0.2825158,3.648763,-0.4825648,0.1896171,-0.02556635,-130,932,1412
2484.336,1.191406,-12.78025,0.2106897,3.715801,-0.5624596,0.2141182,-0.1704423,-119,917,1365
2484.34,1.195312,-12.90475,0.04788403,3.782839,-0.6593987,0.2311624,-0.3611246,-135,929,1400
2484.344,1.199219,-12.89996,-0.2011129,3.825934,-0.7222493,0.2482066,-0.4964132,-180,931,1388
2484.348,1.203125,-12.76588,-0.5267244,4.003105,-0.777643,0.2609898,-0.6231797,-118,924,1357
2484.352,1.207031,-12.69406,-0.8714894,4.304775,-0.8085357,0.2588593,-0.7499462,-126,938,1375
2484.355,1.210938,-12.60787,-0.8331822,4.644751,-0.8213189,0.2322276,-0.9171927,-172,883,1385
2484.359,1.214844,-12.55519,-0.3782839,4.879383,-0.8234494,0.1992044,-1.033307,-201,960,1408
2484.363,1.21875,-12.35887,-1.082179,3.62961,-0.7914915,0.169377,-1.14942,-201,962,1389
2484.367,1.222656,-13.22557,-0.3064578,5.568913,-0.7669904,0.2471413,-1.260208,-132,904,1349
2484.371,1.226562,-6.521805,3.950433,9.002198,-1.137702,0.03515373,-1.379517,-139,910,1370
2484.375,1.230469,-4.261679,7.101202,8.092402,-0.9811085,-0.2854909,-1.076982,-181,908,1370
2484.379,1.234375,-1.929727,8.010999,8.044518,-1.159008,-0.2524677,-0.8969527,-164,972,1351
2484.383,1.238281,0.3543418,7.800309,9.538499,-1.310275,-0.1704423,-1.054612,-156,913,1355
2484.387,1.242188,1.82917,7.173028,10.31901,-1.183509,-0.2109224,-1.581918,-115,906,1383
2484.391,1.246094,2.298434,8.058883,10.50576,-1.063134,-0.2897519,-1.917476,-132,925,1379
2484.395,1.25,3.078943,9.241618,9.538499,-0.974717,-0.3675162,-2.0762,-177,877,1361
2484.398,1.253906,3.275268,8.973468,7.94875,-0.7946873,-0.3728426,-2.183792,-150,923,1382
2484.402,1.257812,2.255338,6.780379,6.833052,-0.4293016,-0.2450108,-2.434129,-95,933,1370
2484.406,1.261719,1.206678,5.990293,5.353435,-0.406931,-0.1107875,-2.614159,-140,943,1400
2484.41,1.265625,1.13964,6.066907,3.811569,-0.4399542,0.09054748,-2.653574,-184,915,1383
2484.414,1.269531,0.8762778,6.86657,2.734178,-0.3760383,0.3227751,-2.508698,-117,923,1375
2484.418,1.273438,0.2346318,7.072472,2.15957,-0.298274,0.7201188,-2.185923,-134,912,1424
2484.422,1.277344,-0.6081272,7.359776,2.37026,-0.4868258,1.094027,-1.998436,-144,936,1393
2484.426,1.28125,-1.752556,7.599196,3.045425,-0.6370281,1.461543,-1.848234,-113,918,1366
2484.43,1.285156,-3.811569,8.446743,5.152322,-0.6157228,1.698032,-1.643703,-153,918,1367
2484.434,1.289062,-6.339846,9.131485,7.694964,-0.6498113,1.870604,-1.299623,-140,922,1404
2484.438,1.292969,-7.996634,8.930372,9.969456,-0.6466155,1.911084,-1.055677,-161,917,1388
2484.441,1.296875,-9.169792,7.757213,11.71722,-0.6348976,1.823733,-0.9033442,-102,958,1375
2484.445,1.300781,-9.974244,6.301539,12.20564,-0.4857606,1.628789,-0.8309063,-112,914,1402
2484.449,1.304688,-9.782708,4.539406,12.37323,-0.2908172,1.350755,-0.7829694,-138,903,1402
2484.453,1.308594,-8.963891,2.949656,12.03805,-0.1938781,1.176052,-0.7595335,-140,947,1405
2484.457,1.3125,-8.183381,1.450886,11.69807,-0.07563377,1.014132,-0.741424,-141,928,1392
2484.461,1.316406,-7.469909,0.8571242,11.61667,-0.02130529,0.8575379,-0.7318367,-128,899,1364
2484.465,1.320312,-6.440402,1.278504,10.37647,-0.07669904,0.7329019,-0.7403588,-117,877,1384
2484.469,1.324219,-5.947197,2.499547,9.572018,0.07243798,0.6157228,-0.7137272,-116,910,1407
2484.473,1.328125,-5.473145,3.754108,8.939949,0.1768339,0.5432849,-0.6615292,-165,924,1394
2484.477,1.332031,-4.639963,5.137957,7.8865,0.2237055,0.515588,-0.5954828,-109,884,1384
2484.48,1.335938,-3.711013,6.349423,7.149086,0.2790993,0.5273059,-0.5379585,-139,910,1390
2484.484,1.339844,-3.217807,7.546524,6.248866,0.309992,0.5709817,-0.4665858,-137,912,1427
2484.488,1.34375,-3.107674,7.996634,5.516241,0.2972088,0.6370281,-0.4186489,-149,885,1393
2484.492,1.347656,-3.289633,8.116344,5.257667,0.2769688,0.7147924,-0.3749731,-141,904,1394
2484.496,1.351562,-3.643975,7.982268,5.305551,0.2290319,0.7765778,-0.3451457,-110,887,1412
2484.5,1.355469,-5.228936,7.795521,6.871359,0.1235707,0.8447547,-0.3281014,-145,935,1388
2484.504,1.359375,-11.1905,12.39239,18.93335,-1.035437,0.5795039,-0.6434197,-134,892,1401
2484.508,1.363281,-8.805874,13.27345,0.9385271,-1.824798,0.2599245,-1.032241,-95,900,1363
2484.512,1.367188,-8.944737,9.241618,2.102109,-0.1587244,0.6700513,-0.7179882,-114,875,1392
2484.516,1.371094,-6.703765,7.489063,11.5209,-0.4420847,0.4388889,0,-147,897,1409
2484.52,1.375,-4.285621,3.792415,5.90889,-0.7179882,0.3025351,0.1619202,-178,918,1382
2484.523,1.378906,-4.333505,0.9816227,7.101202,-0.3195793,0.4729774,-0.04474111,-97,888,1367
2484.527,1.382812,-4.22816,1.934515,9.165004,-0.3589941,0.3685815,-0.2524677,-134,925,1386
2484.531,1.386719,-3.222595,3.256114,7.838616,-0.5049353,0.2279666,-0.221575,-148,910,1451
2484.535,1.390625,-3.634398,3.56736,7.972692,-0.4612595,0.2045308,-0.1970739,-142,903,1357
2484.539,1.394531,-4.381389,4.10845,7.848193,-0.479369,0.1544633,-0.2812298,-123,864,1399
2484.543,1.398438,-4.807557,5.348647,7.331045,-0.4506069,0.1171791,-0.3462109,-126,898,1402
2484.547,1.402344,-5.061342,6.560113,6.967127,-0.3930826,0.06072007,-0.3121225,-135,882,1411
2484.551,1.40625,-4.841076,6.622362,6.607997,-0.3856257,0.04154531,-0.2524677,-140,914,1356
2484.555,1.410156,-4.515464,6.071695,6.612785,-0.3856257,0.05645902,-0.2290319,-140,891,1362
2484.559,1.414062,-4.271256,5.573701,6.732495,-0.3920173,0.0628506,-0.241815,-105,887,1401
2484.562,1.417969,-3.931279,5.3678,6.871359,-0.3834952,0.05432849,-0.2428803,-118,939,1372
2484.566,1.421875,-3.792415,5.200206,7.072472,-0.390952,0.06072007,-0.2524677,-130,896,1380
2484.57,1.425781,-3.926491,5.109226,7.5561,-0.3994742,0.05539375,-0.2695119,-77,904,1379
2484.574,1.429688,-4.13718,4.941632,7.364564,-0.3888215,0.00958738,-0.2865561,-104,886,1357
2484.578,1.433594,-4.414908,4.955997,7.153875,-0.3174488,-0.02343582,-0.2929477,-161,911,1379
2484.582,1.4375,-4.367024,5.291186,7.163451,-0.2929477,-0.02769688,-0.2822951,-157,923,1371
2484.586,1.441406,-4.333505,5.506664,6.871359,-0.2844256,-0.02876214,-0.2727077,-84,879,1359
2484.59,1.445312,-4.175488,5.655104,6.703765,-0.2822951,-0.01171791,-0.2567287,-107,891,1427
2484.594,1.449219,-4.357447,5.746084,6.818686,-0.2812298,0.01597897,-0.2322276,-149,913,1413
2484.598,1.453125,-4.46758,5.688623,6.856994,-0.2727077,0.02343582,-0.1992044,-133,920,1365
2484.602,1.457031,-4.817134,5.559336,6.938396,-0.2492719,0.0298274,-0.1619202,-128,905,1358
2484.605,1.460938,-4.759673,5.12838,7.07726,-0.2343582,0.03834952,-0.1523328,-106,910,1432
2484.609,1.464844,-4.357447,4.91769,7.024588,-0.2130529,0.0298274,-0.1416802,-88,922,1402
2484.613,1.46875,-4.13718,4.831499,7.067683,-0.1981392,0.01917476,-0.1235707,-117,939,1394
2484.617,1.472656,-4.094085,4.927267,7.000646,-0.2087918,0.01704423,-0.128897,-108,879,1386
2484.621,1.476562,-4.237737,5.070919,7.058106,-0.2130529,0.01278317,-0.1395496,-95,908,1402
2484.625,1.480469,-4.280833,5.09965,7.067683,-0.2109224,0.006391587,-0.149137,-145,896,1398
2484.629,1.484375,-4.271256,4.989516,7.010222,-0.2034655,-0.001065264,-0.1555286,-115,924,1376
2484.633,1.488281,-4.309563,4.912902,7.058106,-0.2045308,0.002130529,-0.1565939,-102,916,1373
2484.637,1.492188,-4.180276,4.611232,7.105991,-0.2034655,0,-0.1565939,-111,835,1378
2484.641,1.496094,-4.290409,4.462792,7.187393,-0.1970739,-0.00958738,-0.1715076,-101,913,1419
2484.645,1.5,-4.31914,4.443638,7.326257,-0.1874865,-0.02130529,-0.2130529,-105,927,1384
2484.648,1.503906,-4.309563,4.539406,7.259219,-0.1736381,-0.0330232,-0.2343582,-88,860,1404
2484.652,1.507812,-4.065354,4.611232,7.302315,-0.1629855,-0.04367584,-0.2322276,-123,902,1396
2484.656,1.511719,-4.07972,4.745308,7.249643,-0.1512675,-0.04474111,-0.2098571,-123,901,1402
2484.66,1.515625,-4.256891,4.697424,7.125144,-0.1512675,-0.03941478,-0.2130529,-167,926,1389
2484.664,1.519531,-4.515464,4.759673,7.158663,-0.1523328,-0.03834952,-0.2194445,-99,913,1404
2484.668,1.523438,-4.520253,4.836287,7.144298,-0.1459412,-0.04048005,-0.221575,-148,888,1382
2484.672,1.527344,-4.424485,4.817134,7.096414,-0.1395496,-0.04367584,-0.2119876,-109,912,1410
2484.676,1.53125,-4.242525,4.932055,7.134721,-0.1352886,-0.04261058,-0.1917476,-92,908,1394
2484.68,1.535156,-4.175488,4.812345,7.139509,-0.1416802,-0.04687164,-0.1960087,-88,879,1360
2484.684,1.539062,-4.218583,4.750096,7.149086,-0.1512675,-0.04900216,-0.2098571,-98,863,1353
2484.688,1.542969,-4.151546,4.726154,7.163451,-0.1587244,-0.05219796,-0.2311624,-88,923,1419
2484.691,1.546875,-4.146757,4.793192,7.182605,-0.1587244,-0.06391587,-0.2450108,-131,939,1376
2484.695,1.550781,-4.113238,4.869806,7.120356,-0.1661813,-0.06817692,-0.2567287,-93,895,1391
2484.699,1.554688,-4.175488,5.104438,7.110779,-0.1661813,-0.07030745,-0.2556635,-126,867,1394
2484.703,1.558594,-4.218583,5.147534,7.115567,-0.1704423,-0.06391587,-0.2535329,-87,903,1391
2484.707,1.5625,-4.31914,5.176264,7.038953,-0.1778992,-0.05432849,-0.2514024,-101,919,1358
2484.711,1.566406,-4.410119,5.181052,7.115567,-0.1747034,-0.05432849,-0.2503371,-127,907,1336
2484.715,1.570312,-4.434061,5.204994,7.129933,-0.1629855,-0.0628506,-0.2545982,-126,869,1414
2484.719,1.574219,-4.515464,5.209783,7.091625,-0.1587244,-0.06711166,-0.2450108,-103,920,1375
2484.723,1.578125,-4.639963,5.123592,7.038953,-0.1619202,-0.07243798,-0.2269013,-133,923,1355
2484.727,1.582031,-4.544195,5.133168,6.991069,-0.1747034,-0.07989483,-0.2279666,-122,885,1365
2484.73,1.585938,-4.568137,5.300762,6.947973,-0.1768339,-0.08522115,-0.2343582,-129,939,1410
2484.734,1.589844,-4.453215,5.252878,6.991069,-0.1885518,-0.08948221,-0.2354234,-82,927,1384
2484.738,1.59375,-4.367024,5.161899,7.024588,-0.1981392,-0.08522115,-0.2290319,-121,909,1341
2484.742,1.597656,-4.486734,4.855441,7.192182,-0.2109224,-0.06498113,-0.2290319,-59,896,1384
2484.746,1.601562,-4.390966,4.46758,7.340622,-0.2162487,-0.06498113,-0.221575,-74,877,1419
2484.75,1.605469,-4.362235,4.343082,7.220912,-0.1981392,-0.06498113,-0.1949434,-90,889,1428
2484.754,1.609375,-4.381389,4.280833,7.383718,-0.1885518,-0.06924219,-0.1661813,-161,916,1373
2484.758,1.613281,-4.429273,4.367024,7.220912,-0.1842907,-0.06391587,-0.1597897,-84,896,1356
2484.762,1.617188,-4.52983,4.458003,7.340622,-0.1757686,-0.06178534,-0.1565939,-106,879,1411
2484.766,1.621094,-4.448427,4.414908,7.331045,-0.1640507,-0.06498113,-0.1576591,-157,890,1421
2484.77,1.625,-4.443638,4.352659,7.326257,-0.1512675,-0.06498113,-0.1502023,-109,881,1371
2484.773,1.628906,-4.458003,4.290409,7.359776,-0.1374191,-0.0660464,-0.1597897,-90,870,1358
2484.777,1.632812,-4.501099,4.343082,7.359776,-0.1225054,-0.06924219,-0.165116,-135,909,1422
2484.781,1.636719,-4.386177,4.405331,7.302315,-0.1065264,-0.06924219,-0.1640507,-131,951,1433
2484.785,1.640625,-5.535394,5.209783,7.091625,-0.08735168,-0.04687164,-0.1725728,-103,933,1370
2484.789,1.644531,-3.65834,4.089296,7.311892,-0.1150486,-0.07243798,-0.1597897,-104,896,1362
2484.793,1.648438,-3.801992,4.414908,7.149086,-0.0660464,-0.0660464,-0.1225054,-109,905,1405
2484.797,1.652344,-4.132392,4.601656,7.374141,-0.09800433,-0.05219796,-0.1065264,-121,905,1397
2484.801,1.65625,-4.395754,4.481946,7.230489,-0.1171791,-0.03408846,-0.1150486,-132,914,1435
2484.805,1.660156,-4.639963,4.280833,7.493851,-0.08415589,-0.04900216,-0.1384844,-116,872,1380
2484.809,1.664062,-4.572925,4.376601,7.302315,-0.07137272,-0.06711166,-0.1470065,-100,885,1408
2484.812,1.667969,-4.357447,4.534618,7.331045,-0.07137272,-0.06178534,-0.1438107,-129,930,1383
2484.816,1.671875,-4.31914,4.525041,7.302315,-0.07563377,-0.05539375,-0.1406149,-101,905,1387
2484.82,1.675781,-4.338293,4.55856,7.268796,-0.07030745,-0.06178534,-0.1480718,-79,893,1378
2484.824,1.679688,-4.419696,4.592079,7.254431,-0.07243798,-0.0660464,-0.1587244,-138,905,1386
2484.828,1.683594,-4.43885,4.635174,7.292738,-0.07030745,-0.07669904,-0.181095,-99,887,1400
2484.832,1.6875,-4.443638,4.841076,7.244854,-0.0660464,-0.08948221,-0.2002697,-124,935,1363
2484.836,1.691406,-4.34787,4.802769,7.28795,-0.07350325,-0.09693906,-0.2098571,-121,928,1372
2484.84,1.695312,-4.357447,4.788403,7.19697,-0.0809601,-0.1022654,-0.2119876,-96,881,1369
2484.844,1.699219,-4.419696,4.735731,7.235277,-0.08309063,-0.1043959,-0.2109224,-111,893,1394
2484.848,1.703125,-4.405331,4.67827,7.235277,-0.08735168,-0.1033307,-0.2173139,-112,918,1388
2484.852,1.707031,-4.410119,4.663905,7.278373,-0.08202536,-0.1033307,-0.2226403,-90,897,1349
2484.855,1.710938,-4.458003,4.668693,7.364564,-0.07669904,-0.108657,-0.2237055,-148,875,1379
2484.859,1.714844,-4.386177,4.434061,7.283161,-0.0809601,-0.108657,-0.221575,-118,898,1358
2484.863,1.71875,-4.367024,4.299986,7.311892,-0.07669904,-0.09906959,-0.2119876,-99,898,1329
2484.867,1.722656,-4.453215,4.089296,7.503428,-0.06072007,-0.09054748,-0.2002697,-113,882,1372
2484.871,1.726562,-4.43885,4.098873,7.484274,-0.04900216,-0.08309063,-0.1992044,-106,892,1399
2484.875,1.730469,-4.410119,4.060566,7.493851,-0.03089267,-0.07882957,-0.1981392,-129,913,1394
2484.879,1.734375,-4.343082,4.189853,7.484274,-0.02130529,-0.07137272,-0.1906823,-114,917,1366
2484.883,1.738281,-4.204218,4.323928,7.450756,-0.01384844,-0.05752428,-0.1864213,-91,926,1373
2484.887,1.742188,-4.242525,4.534618,7.398083,-0.001065264,-0.04048005,-0.1864213,-98,901,1403
2484.891,1.746094,-4.247314,4.472369,7.412448,0.00958738,-0.03195793,-0.1896171,-123,943,1364
2484.895,1.75,-4.34787,4.481946,7.412448,0.01597897,-0.01704423,-0.1981392,-101,908,1358
2484.898,1.753906,-4.333505,4.43885,7.335834,0.02450108,-0.003195793,-0.2119876,-119,917,1399
2484.902,1.757812,-4.67827,4.400543,7.335834,0.0479369,0.01384844,-0.2482066,-112,862,1391
2484.906,1.761719,-4.276044,4.098873,7.422025,0.0660464,0.01597897,-0.2748382,-129,890,1421
2484.91,1.765625,-4.304775,4.209007,7.398083,0.08415589,0.02024002,-0.2311624,-115,916,1368
2484.914,1.769531,-4.371812,4.10845,7.445967,0.08415589,0.03728426,-0.1970739,-94,911,1414
2484.918,1.773438,-4.544195,4.19943,7.345411,0.1075917,0.06498113,-0.2077266,-102,906,1388
2484.922,1.777344,-4.256891,4.175488,7.441179,0.1363538,0.0809601,-0.2269013,-104,889,1380
2484.926,1.78125,-4.232949,4.357447,7.302315,0.1502023,0.09267801,-0.2087918,-95,917,1361
2484.93,1.785156,-4.338293,4.252102,7.393295,0.1587244,0.1203749,-0.1938781,-127,899,1361
2484.934,1.789062,-4.458003,4.280833,7.311892,0.1736381,0.1502023,-0.1970739,-111,920,1422
2484.938,1.792969,-4.582502,4.429273,7.388506,0.2034655,0.1661813,-0.2087918,-102,907,1399
2484.941,1.796875,-4.716577,4.390966,7.359776,0.2354234,0.1949434,-0.2322276,-116,921,1381
2484.945,1.800781,-4.256891,4.189853,7.541735,0.2482066,0.2087918,-0.2535329,-94,887,1386
2484.949,1.804688,-4.185065,4.213795,7.417237,0.2812298,0.2162487,-0.2311624,-122,884,1427
2484.953,1.808594,-4.352659,4.285621,7.354988,0.2854909,0.241815,-0.2194445,-97,893,1370
2484.957,1.8125,-4.55856,4.371812,7.307103,0.298274,0.2695119,-0.221575,-127,924,1372
2484.961,1.816406,-4.860229,4.611232,7.201759,0.3312972,0.3057309,-0.241815,-122,891,1350
2484.965,1.820312,-3.96001,4.10845,7.61835,0.350472,0.3206446,-0.273773,-113,880,1372
2484.969,1.824219,-4.223372,4.280833,7.101202,0.3952131,0.3163835,-0.2439456,-119,905,1424
2484.973,1.828125,-4.501099,4.539406,7.388506,0.4154531,0.3430151,-0.2151834,-135,931,1371
2484.977,1.832031,-4.52983,4.946421,7.513005,0.4122573,0.3739078,-0.2290319,-76,887,1367
2484.98,1.835938,-4.510676,5.252878,7.709329,0.4048005,0.4282363,-0.2908172,-94,847,1375
2484.984,1.839844,-4.505888,5.013458,7.230489,0.3632552,0.535828,-0.3792341,-91,916,1391
2484.988,1.84375,-4.022259,4.367024,7.589619,0.3696468,0.6562029,-0.386691,-129,896,1362
2484.992,1.847656,-4.170699,4.170699,7.8865,0.3994742,0.6732471,-0.3472762,-67,907,1372
2484.996,1.851562,-4.903325,5.224148,7.52737,0.4175837,0.7595335,-0.2844256,-89,872,1392
2485,1.855469,-3.768473,5.104438,7.829039,0.350472,0.9108011,-0.1885518,-162,906,1406
2485.004,1.859375,-3.294421,3.888183,7.690176,0.3408846,0.9661948,-0.2790993,-134,871,1390
2485.008,1.863281,-4.304775,4.046201,7.412448,0.4218447,0.9928265,-0.4037352,-122,859,1364
2485.012,1.867188,-4.343082,4.673482,7.661445,0.4516721,1.117462,-0.2972088,-61,878,1433
2485.016,1.871094,-3.773262,4.644751,7.795521,0.4133226,1.219728,-0.2045308,-95,889,1385
2485.02,1.875,-3.921702,4.175488,7.484274,0.4484763,1.313471,-0.2428803,-96,895,1409
2485.023,1.878906,-4.19943,4.376601,7.661445,0.4868258,1.400823,-0.2801645,-123,888,1374
2485.027,1.882812,-4.098873,4.745308,7.76679,0.4740427,1.480718,-0.2471413,-99,875,1366
2485.031,1.886719,-4.381389,4.812345,7.718906,0.4697816,1.598962,-0.2535329,-93,876,1411
2485.035,1.890625,-4.462792,4.687847,8.015787,0.4772385,1.680987,-0.3259709,-135,926,1375
2485.039,1.894531,-4.596867,4.630386,8.207323,0.4910869,1.750229,-0.4122573,-130,873,1352
2485.043,1.898438,-4.405331,5.027823,7.757213,0.46339,1.809884,-0.4538026,-107,851,1429
2485.047,1.902344,-4.175488,4.999093,7.297527,0.5123922,1.949434,-0.4836301,-88,877,1417
2485.051,1.90625,-4.175488,5.056554,7.359776,0.5326322,2.07407,-0.5475459,-113,875,1382
2485.055,1.910156,-4.477157,5.33907,7.062895,0.519849,2.21575,-0.6221144,-115,897,1395
2485.059,1.914062,-4.817134,5.358223,7.091625,0.5347627,2.354234,-0.6711166,-126,892,1412
2485.062,1.917969,-4.979939,4.927267,7.16824,0.5709817,2.484197,-0.7339672,-128,888,1393
2485.066,1.921875,-5.137957,4.898537,7.19697,0.6061355,2.568353,-0.793622,-145,877,1370
2485.07,1.925781,-5.09965,5.061342,7.129933,0.644485,2.661031,-0.8532768,-112,864,1402
2485.074,1.929688,-4.970363,5.27682,7.086837,0.664725,2.770753,-0.9044095,-90,858,1407
2485.078,1.933594,-4.960786,5.434838,7.354988,0.6860303,2.94013,-0.9725864,-92,898,1396
2485.082,1.9375,-5.066131,5.358223,7.302315,0.6977482,3.082875,-1.02798,-144,869,1403
2485.086,1.941406,-5.228936,5.176264,7.489063,0.7073356,3.239469,-1.0887,-91,894,1396
2485.09,1.945312,-5.573701,5.549759,7.690176,0.6966829,3.392867,-1.157942,-113,848,1422
2485.094,1.949219,-5.540183,6.062119,7.508216,0.6636597,3.591006,-1.290035,-115,932,1434
2485.098,1.953125,-5.372589,6.224924,7.125144,0.6988135,3.766775,-1.402953,-119,922,1399
2485.102,1.957031,-5.214571,6.05733,7.07726,0.7286409,3.965979,-1.506284,-100,887,1388
2485.105,1.960938,-5.15711,5.822698,7.192182,0.7297061,4.167314,-1.631985,-138,839,1459
2485.109,1.964844,-5.78918,5.798756,7.359776,0.7840346,4.457066,-1.79071,-96,919,1407
2485.113,1.96875,-5.985504,5.913678,7.814674,0.8319715,4.647749,-1.904693,-83,877,1410
2485.117,1.972656,-5.683835,6.272808,7.671022,0.9044095,4.840562,-2.025068,-80,875,1428
2485.121,1.976562,-5.525817,6.92882,8.159439,0.9725864,5.068528,-2.137986,-60,870,1430
2485.125,1.980469,-5.3678,8.614338,8.714894,0.9374327,5.39876,-2.306298,-117,828,1439
2485.129,1.984375,-5.549759,9.011775,8.063671,0.8873653,5.664011,-2.431999,-103,861,1406
2485.133,1.988281,-6.287174,8.724471,8.116344,0.8607337,5.944176,-2.534264,-100,890,1427
2485.137,1.992188,-7.249643,8.441955,9.006987,0.8479505,6.161489,-2.629073,-79,886,1429
2485.141,1.996094,-8.69574,8.480262,8.724471,0.7861652,6.353237,-2.827212,-98,873,1438
2485.145,2,-9.074024,8.513781,7.637503,0.8042746,6.560964,-2.966761,-102,882,1424
2485.148,2.003906,-12.41633,9.562441,7.809886,1.058873,6.60677,-2.936934,-92,865,1395
2485.152,2.007812,-11.42034,10.95108,8.848969,1.160073,6.657903,-2.943326,-74,801,1445
2485.156,2.011719,-14.15452,10.58716,8.585607,0.9715212,6.737798,-3.071157,-94,898,1455
2485.16,2.015625,-17.49204,8.595184,9.993398,0.9970875,6.679208,-3.351322,-100,868,1431
2485.164,2.019531,-19.13446,7.599196,9.600749,1.002414,6.521549,-3.564375,-78,880,1425
2485.168,2.023438,-17.26698,5.841852,11.09473,1.040763,6.056028,-3.712447,-33,857,1453
2485.172,2.027344,-15.82088,6.014235,6.167463,1.607484,6.085856,-3.668771,-68,862,1496
2485.176,2.03125,-20.11608,10.22803,13.33091,1.999501,5.945241,-3.428021,-78,859,1446
2485.18,2.035156,-21.54303,12.93827,11.81299,1.627724,5.340171,-3.773167,-50,852,1420
2485.184,2.039062,-18.828,15.04516,7.201759,2.041047,5.217665,-4.063984,-85,858,1474
2485.188,2.042969,-17.36754,17.13291,10.68772,2.426672,4.972654,-3.963849,-81,870,1477
2485.191,2.046875,-17.26219,16.01721,11.28627,2.27434,4.680772,-3.870106,-28,884,1427
2485.195,2.050781,-16.42901,15.53837,9.078813,2.010154,4.484763,-4.003264,-42,876,1442
2485.199,2.054688,-16.27099,15.06911,8.978256,2.179531,4.35054,-4.082093,-36,873,1476
2485.203,2.058594,-15.7299,13.57512,10.17057,2.516155,4.058658,-3.971306,-52,883,1458
2485.207,2.0625,-14.87278,11.20008,11.24796,2.934804,3.50472,-3.772101,-28,859,1474
2485.211,2.066406,-12.82813,10.08438,9.461885,3.194728,3.234143,-3.706055,-13,854,1441
2485.215,2.070312,-10.14184,9.902418,8.528146,3.54307,3.047722,-3.630421,10,851,1482
2485.219,2.074219,-8.422801,10.72602,9.212888,3.879693,2.815494,-3.534547,-55,871,1441
2485.223,2.078125,-7.398083,11.44428,10.16099,3.979828,2.396845,-3.430151,-63,902,1463
2485.227,2.082031,-7.273585,12.13381,7.742848,3.980893,2.144377,-3.361975,-49,888,1454
2485.23,2.085938,-7.771579,12.99094,6.689399,4.017112,1.91428,-3.375823,-17,848,1493
2485.234,2.089844,-7.508216,14.59984,4.898537,3.755057,1.809884,-3.613377,-7,898,1451
2485.238,2.09375,-4.64954,21.77287,8.805874,3.289537,1.54996,-3.428021,-36,905,1455
2485.242,2.097656,-4.702212,25.12954,13.99171,2.766492,0.8277105,-2.509763,-37,897,1466
2485.246,2.101562,-6.636727,23.79358,15.16008,2.205097,0.2492719,-1.617071,-7,874,1490
2485.25,2.105469,-8.930372,19.32121,14.31733,1.497762,-0.04580637,-1.586179,-42,920,1471
2485.254,2.109375,-13.71399,19.3643,20.42254,1.290035,-0.8372978,-1.874865,-55,939,1474
2485.258,2.113281,-15.1122,20.48958,21.58133,0.5411543,-1.983522,-1.774731,-31,903,1459
2485.262,2.117188,-13.0053,19.62288,15.92144,0.07137272,-2.969957,-1.47113,-49,862,1482
2485.266,2.121094,-8.312668,18.4162,11.61667,-0.05219796,-3.572897,-1.283644,-59,890,1513
2485.27,2.125,-1.331176,17.40106,7.642292,-0.2918825,-3.946805,-0.994957,-74,919,1471
2485.273,2.128906,2.360683,14.89193,5.295974,-0.4463458,-3.997937,-0.5837649,-39,887,1483
2485.277,2.132812,3.232172,11.33894,4.88896,-0.6135923,-3.941478,-0.2034655,-24,858,1451
2485.281,2.136719,2.528277,8.250419,4.960786,-0.8575379,-3.881824,-0.06391587,-11,947,1451
2485.285,2.140625,1.321599,6.162675,4.434061,-1.033307,-3.845605,-0.1715076,-27,920,1443
2485.289,2.144531,0.7757213,5.942409,3.993528,-0.9619338,-3.862649,-0.2556635,-40,892,1446
2485.293,2.148438,0.8858546,5.784391,3.519476,-0.8181231,-3.880758,-0.2290319,0,864,1444
2485.297,2.152344,1.216254,5.410896,2.99754,-0.6625945,-3.858388,-0.1299623,-19,897,1476
2485.301,2.15625,1.532289,4.764461,2.327164,-0.495348,-3.82643,-0.02024002,6,959,1448
2485.305,2.160156,1.403002,4.209007,2.221819,-0.2663161,-3.78595,0.1342233,0,870,1437
2485.309,2.164062,1.192312,4.443638,2.269703,-0.1203749,-3.782754,0.2705772,-9,888,1448
2485.312,2.167969,0.6991069,5.185841,2.561796,-0.01278317,-3.795537,0.4261058,-19,935,1443
2485.316,2.171875,0.04788403,6.172252,3.050213,0.05113269,-3.821104,0.6018744,-70,896,1444
2485.32,2.175781,-0.6751649,7.64708,3.605668,0.06711166,-3.886085,0.8362326,-4,861,1402
2485.324,2.179688,-1.240196,8.714894,3.936068,0.03941478,-3.945739,1.017328,-43,903,1477
2485.328,2.183594,-1.699883,9.504981,4.19943,-0.02876214,-4.013916,1.209075,-21,915,1458
2485.332,2.1875,-2.011129,10.28549,4.31914,-0.1395496,-4.081028,1.405084,-75,952,1452
2485.336,2.191406,-2.274492,10.72602,4.280833,-0.3259709,-4.152401,1.677791,-45,929,1436
2485.34,2.195312,-2.408567,10.72602,4.304775,-0.4868258,-4.187554,1.883388,-69,901,1455
2485.344,2.199219,-2.499547,10.36689,4.180276,-0.6380934,-4.21099,2.093245,-22,952,1462
2485.348,2.203125,-2.590526,9.701305,4.055778,-0.7659251,-4.232296,2.292449,-43,957,1420
2485.352,2.207031,-2.772486,8.69574,3.926491,-0.8863,-4.267449,2.538525,-48,913,1443
2485.355,2.210938,-2.906561,7.824251,3.74932,-0.9331716,-4.293016,2.713229,-39,896,1437
2485.359,2.214844,-2.987964,6.885724,3.471592,-0.9289106,-4.317517,2.869822,-39,952,1438
2485.363,2.21875,-2.930503,6.100426,3.141193,-0.8841695,-4.313256,3.013633,-16,944,1447
2485.367,2.222656,-2.868254,5.377377,2.920926,-0.7680557,-4.280233,3.176619,-36,946,1395
2485.371,2.226562,-2.94008,4.979939,2.87783,-0.6593987,-4.245079,3.291667,-84,924,1410
2485.375,2.230469,-3.083732,4.534618,2.72939,-0.5262406,-4.205664,3.40352,-74,950,1453
2485.379,2.234375,-3.198653,4.237737,2.734178,-0.4101268,-4.17051,3.502589,-56,947,1411
2485.383,2.238281,-3.375824,3.830723,2.748544,-0.2258361,-4.125769,3.616573,-40,943,1425
2485.387,2.242188,-3.62961,3.615245,2.949656,-0.07882957,-4.090615,3.682619,-59,887,1422
2485.391,2.246094,-3.835511,3.462016,2.978387,0.05539375,-4.055462,3.72736,-52,970,1417
2485.395,2.25,-4.122815,3.610456,3.064578,0.1821602,-4.004329,3.763579,-31,942,1398
2485.398,2.253906,-4.453215,3.792415,3.232172,0.3398194,-3.910586,3.809386,-36,924,1421
2485.402,2.257812,-4.807557,3.974375,3.44765,0.4484763,-3.817908,3.836017,-63,901,1430
2485.406,2.261719,-5.343858,4.141969,3.696647,0.5592638,-3.729491,3.870106,-76,921,1441
2485.41,2.265625,-5.813122,4.218583,3.888183,0.6636597,-3.660249,3.896737,-66,987,1408
2485.414,2.269531,-6.368576,4.515464,4.295198,0.7819041,-3.567571,3.913782,-62,930,1439
2485.418,2.273438,-6.813898,4.893748,4.683058,0.850081,-3.496198,3.924434,-81,955,1450
2485.422,2.277344,-7.163451,5.300762,5.09965,0.8926916,-3.436543,3.936152,-69,937,1470
2485.426,2.28125,-7.484274,5.683835,5.444415,0.9299759,-3.376888,3.942544,-44,950,1409
2485.43,2.285156,-7.800309,5.932832,5.880159,0.9480853,-3.287406,3.945739,-88,947,1385
2485.434,2.289062,-8.078036,6.124368,6.162675,0.9512811,-3.226686,3.942544,-34,931,1440
2485.438,2.292969,-8.45632,6.282385,6.651092,0.9491506,-3.168096,3.938283,-104,964,1393
2485.441,2.296875,-8.954314,6.411672,7.072472,0.938498,-3.118029,3.934022,-86,973,1420
2485.445,2.300781,-9.864111,6.703765,7.445967,0.9257148,-3.100985,3.929761,-74,931,1419
2485.449,2.304688,-10.57758,6.938396,7.781155,0.9097358,-3.08181,3.912716,-84,957,1432
2485.453,2.308594,-11.1091,7.268796,8.178593,0.8969527,-3.073288,3.894607,-64,989,1409
2485.457,2.3125,-11.44428,7.513005,8.42759,0.8788432,-3.080745,3.870106,-58,938,1402
2485.461,2.316406,-11.70286,7.61835,8.690952,0.86606,-3.087136,3.843474,-76,944,1406
2485.465,2.320312,-12.01889,7.292738,8.901642,0.84582,-3.079679,3.793407,-90,912,1438
2485.469,2.324219,-12.21043,6.900089,9.126697,0.8394284,-3.069027,3.760383,-94,915,1431
2485.473,2.328125,-12.469,6.517017,9.255984,0.8628642,-3.075418,3.724164,-99,999,1418
2485.477,2.332031,-12.83292,6.411672,9.35654,0.9001484,-3.083941,3.685815,-97,926,1418
2485.48,2.335938,-13.18726,6.540959,9.47625,0.9629991,-3.08181,3.62403,-101,953,1415
2485.484,2.339844,-13.56076,6.895301,9.495404,1.001349,-3.080745,3.564375,-97,991,1409
2485.488,2.34375,-14.04918,7.201759,9.581595,1.023719,-3.072223,3.517503,-73,961,1381
2485.492,2.347656,-14.54717,7.474698,9.639056,1.034372,-3.066896,3.467436,-108,908,1382
2485.496,2.351562,-15.02601,8.183381,9.801862,1.041829,-3.070092,3.399259,-75,969,1400
2485.5,2.355469,-15.48091,8.772355,9.80665,1.02798,-3.085006,3.349191,-108,974,1436
2485.504,2.359375,-15.8161,9.255984,9.873688,0.9853696,-3.089267,3.30232,-140,951,1393
2485.508,2.363281,-15.95496,9.552865,9.71567,0.9289106,-3.080745,3.253318,-104,899,1378
2485.512,2.367188,-15.98848,9.667786,9.619902,0.8649947,-3.055178,3.197924,-122,925,1386
2485.516,2.371094,-15.9789,9.648633,9.466673,0.8309063,-3.029612,3.172357,-115,940,1420
2485.52,2.375,-16.17523,9.710882,9.390059,0.8021441,-2.993393,3.154248,-154,928,1391
2485.523,2.378906,-16.53915,9.629479,9.361328,0.7925567,-2.952913,3.158509,-92,930,1365
2485.527,2.382812,-16.98447,9.605537,9.442731,0.8159926,-2.915629,3.167031,-121,944,1369
2485.531,2.386719,-17.37233,9.730036,9.284714,0.8468852,-2.902846,3.172357,-127,973,1446
2485.535,2.390625,-17.81765,10.02213,8.90643,0.8745821,-2.87941,3.178749,-134,964,1420
2485.539,2.394531,-18.32522,10.14663,8.489839,0.8948221,-2.84106,3.197924,-79,985,1388
2485.543,2.398438,-19.14882,9.418789,8.092402,0.9033442,-2.761165,3.230947,-141,949,1404
2485.547,2.402344,-19.03869,6.74686,8.33661,0.9768475,-2.63866,3.259709,-111,989,1376
2485.551,2.40625,-17.49204,3.787627,7.987057,1.151551,-2.477805,3.296993,-94,1001,1376
2485.555,2.410156,-15.88792,2.37026,7.613561,1.374191,-2.419216,3.347061,-119,914,1407
2485.559,2.414062,-15.59104,2.418144,6.727707,1.585113,-2.289253,3.445065,-107,968,1401
2485.562,2.417969,-16.38113,2.829946,6.430826,1.643703,-2.050634,3.48661,-140,984,1424
2485.566,2.421875,-17.53513,3.016694,6.727707,1.695901,-1.812015,3.452522,-127,986,1407
2485.57,2.425781,-18.74181,3.08852,7.206547,1.738512,-1.649029,3.361975,-129,957,1399
2485.574,2.429688,-19.21107,3.342306,7.311892,1.703358,-1.536111,3.271427,-156,936,1405
2485.578,2.433594,-18.9094,3.433285,7.173028,1.547829,-1.3678,3.192598,-132,1013,1401
2485.582,2.4375,-18.75139,3.002329,6.976704,1.3678,-1.20801,3.132943,-151,956,1389
2485.586,2.441406,-18.96687,2.288857,6.770802,1.130246,-1.026915,3.048787,-119,940,1410
2485.59,2.445312,-19.79526,1.661576,6.655881,0.8628642,-0.8468852,2.961435,-97,994,1414
2485.594,2.449219,-21.35149,0.8619126,6.421249,0.5177185,-0.684965,2.868757,-159,983,1404
2485.598,2.453125,-22.26608,-0.004788403,5.707777,0.2972088,-0.6103965,2.806972,-137,960,1369
2485.602,2.457031,-22.82153,-1.01993,4.754884,0.1118528,-0.5454154,2.726012,-117,980,1361
2485.605,2.460938,-22.99391,-2.226608,3.739743,-0.0479369,-0.4772385,2.612028,-158,998,1419
2485.609,2.464844,-23.07532,-4.367024,2.183512,-0.2162487,-0.3643204,2.406432,-124,1002,1403
2485.613,2.46875,-23.04659,-6.224924,1.187524,-0.294013,-0.273773,2.207228,-132,982,1375
2485.617,2.472656,-22.76886,-7.876923,0.248997,-0.2993393,-0.1789644,1.979261,-124,971,1353
2485.621,2.476562,-22.56774,-9.500192,-0.4501099,-0.2354234,-0.08415589,1.727859,-138,969,1409
2485.625,2.480469,-22.50071,-10.79785,-0.9911995,-0.1075917,0.05006743,1.386974,-168,1004,1387
2485.629,2.484375,-22.67309,-11.00854,-1.058237,0.008522115,0.1395496,1.133441,-172,1010,1427
2485.633,2.488281,-23.06574,-10.56322,-0.9337386,0.108657,0.2205097,0.8777779,-134,974,1388
2485.637,2.492188,-23.41529,-9.782708,-0.4548983,0.185356,0.2908172,0.6295713,-134,1032,1409
2485.641,2.496094,-23.64514,-8.461109,0.2585738,0.2322276,0.3536678,0.3195793,-164,967,1432
2485.645,2.5,-23.38177,-7.383718,0.9337386,0.2024002,0.3834952,0.1107875,-152,1016,1416
2485.648,2.503906,-22.85984,-6.406884,1.436521,0.1203749,0.4079963,-0.07669904,-132,973,1389
2485.652,2.507812,-22.18467,-5.463568,1.848324,-0.01278317,0.4474111,-0.257794,-135,988,1421
2485.656,2.511719,-21.2222,-4.539406,2.202666,-0.2450108,0.5241101,-0.4804343,-122,978,1402
2485.66,2.515625,-20.47521,-3.926491,2.413355,-0.4186489,0.588026,-0.624245,-130,978,1392
2485.664,2.519531,-19.75695,-3.471592,2.571373,-0.5858954,0.6540724,-0.7456851,-134,983,1412
2485.668,2.523438,-19.09136,-2.954445,2.815581,-0.7350325,0.7360977,-0.8564726,-140,975,1406
2485.672,2.527344,-26.80069,-7.608773,0.04309563,-0.3813647,1.076982,-0.9544769,-144,973,1402
2485.676,2.53125,-17.15685,-1.192312,10.29028,-2.01335,1.394431,-1.352886,-180,981,1448
2485.68,2.535156,-4.304775,10.10832,10.04128,-1.293231,0.4101268,-1.290035,-133,933,1411
2485.684,2.539062,3.102885,14.87757,5.84664,-0.1342233,-0.3920173,-1.029045,-135,952,1405
2485.688,2.542969,11.00854,13.87679,5.765238,-0.5507417,0.4900216,-1.768339,-163,964,1405
2485.691,2.546875,16.84081,15.40908,11.63582,-1.092961,1.013066,-2.809102,-140,1023,1398
2485.695,2.550781,20.11129,16.39549,11.6837,-0.5368933,0.86606,-3.695402,-166,1001,1374
2485.699,2.554688,21.883,15.29416,7.584831,0.2343582,0.8788432,-4.47198,-128,982,1390
2485.703,2.558594,20.10172,10.98939,5.161899,0.684965,1.979261,-5.514874,-187,963,1415
2485.707,2.5625,7.441179,2.154781,5.21936,0.2908172,2.779275,-5.770537,-122,1004,1411
2485.711,2.566406,-12.31098,-3.687071,2.896984,-1.078048,3.295928,-5.169728,-111,957,1368
2485.715,2.570312,-29.55403,0.2059013,4.299986,-1.823733,3.572897,-3.807255,-122,953,1391
2485.719,2.574219,-37.00957,10.30943,9.275137,-1.356082,3.196859,-2.427738,-159,982,1389
2485.723,2.578125,-28.8645,13.62301,12.50252,-0.6530071,2.85917,-1.587244,-150,986,1367
2485.727,2.582031,-16.06509,9.495404,15.91665,-0.551807,2.993393,-1.505219,-107,956,1427
2485.73,2.585938,-7.584831,5.525817,19.1584,-0.4016047,2.775014,-1.411475,-168,997,1392
2485.734,2.589844,-5.616797,2.825158,18.98123,-0.3227751,2.27434,-1.319863,-164,989,1426
2485.738,2.59375,-7.97748,2.585738,15.12657,-1.080178,1.927063,-1.638377,-139,950,1351
2485.742,2.597656,-9.825804,2.236184,11.8082,-0.9161274,1.774731,-1.976066,-127,944,1433
2485.746,2.601562,-10.71645,3.189077,10.97981,-0.4079963,1.389105,-2.008023,-107,974,1431
2485.75,2.605469,-8.365341,5.841852,6.770802,-0.2119876,1.089766,-1.759817,-165,970,1420
2485.754,2.609375,-3.533842,9.452308,3.39019,-0.09374327,1.140898,-1.477522,-146,963,1372
2485.758,2.613281,-1.647211,11.00375,2.643199,-0.1928129,1.318797,-1.447694,-132,927,1381
2485.762,2.617188,-1.651999,11.82736,3.433285,-0.4783037,1.540372,-1.419997,-135,943,1426
2485.766,2.621094,-3.505111,11.61667,4.553772,-0.7946873,1.717206,-1.325189,-103,1010,1443
2485.77,2.625,-7.206547,9.720459,7.019799,-0.9470201,1.789644,-1.130246,-88,995,1432
2485.773,2.628906,-8.78672,7.910442,7.8865,-0.9108011,1.717206,-1.016262,-89,961,1391
2485.777,2.632812,-11.65019,7.613561,13.9965,-0.9108011,1.564873,-0.9896307,-69,930,1434
2485.781,2.636719,-17.0515,12.33972,24.09525,-2.714294,1.08657,-1.455151,-114,957,1411
2485.785,2.640625,-14.48492,8.288726,2.020706,-2.356365,0.5890912,-1.903628,-107,980,1408
2485.789,2.644531,-10.6111,6.497863,8.303091,-0.809601,0.4825648,-1.512675,-119,875,1380
2485.793,2.648438,-5.463568,8.911219,12.02368,-1.084439,0.128897,-0.9512811,-103,930,1450
2485.797,2.652344,-3.021482,6.196194,5.880159,-1.331581,0.06391587,-0.6838998,-137,948,1413
2485.801,2.65625,-4.266467,3.074155,6.732495,-1.031176,0.3195793,-0.757403,-122,995,1403
2485.805,2.660156,-5.190629,5.200206,8.346187,-1.070591,0.1672465,-0.8085357,-104,937,1390
2485.809,2.664062,-5.511452,6.708553,6.880936,-1.081243,0.0181095,-0.7744472,-103,950,1428
2485.812,2.667969,-5.779603,6.938396,6.742072,-0.9896307,0.02130529,-0.7233146,-119,956,1423
2485.816,2.671875,-5.664681,6.014235,7.479486,-0.902279,-0.00958738,-0.6498113,-99,978,1400
2485.82,2.675781,-5.415684,5.401319,7.40766,-0.8021441,-0.0628506,-0.5901565,-78,936,1408
2485.824,2.679688,-5.104438,4.774038,7.273585,-0.6956177,-0.08948221,-0.5294364,-137,949,1431
2485.828,2.683594,-4.927267,4.185065,7.666234,-0.6391587,-0.08415589,-0.46339,-92,953,1400
2485.832,2.6875,-4.960786,3.174711,8.116344,-0.5869607,-0.112918,-0.3952131,-149,966,1402
2485.836,2.691406,-4.841076,2.437297,8.106767,-0.519849,-0.1470065,-0.3877563,-97,914,1427
2485.84,2.695312,-4.496311,2.236184,8.370129,-0.4442153,-0.1683118,-0.3973436,-120,953,1411
2485.844,2.699219,-4.01747,2.437297,8.571242,-0.3856257,-0.1885518,-0.3994742,-111,967,1425
2485.848,2.703125,-3.825934,2.552219,8.250419,-0.3259709,-0.1992044,-0.3802994,-119,953,1390
2485.852,2.707031,-3.945644,3.011906,8.054094,-0.2588593,-0.1874865,-0.3643204,-96,941,1396
2485.855,2.710938,-4.170699,3.591302,7.829039,-0.205596,-0.1736381,-0.3515373,-116,930,1405
2485.859,2.714844,-4.357447,4.381389,7.551312,-0.1576591,-0.1576591,-0.3281014,-111,976,1433
2485.863,2.71875,-4.352659,5.12838,7.259219,-0.108657,-0.1320928,-0.2929477,-87,949,1402
2485.867,2.722656,-4.352659,5.899313,7.000646,-0.06498113,-0.07989483,-0.2226403,-105,922,1418
2485.871,2.726562,-4.414908,5.999869,6.80911,-0.04687164,-0.04154531,-0.1715076,-116,968,1412
2485.875,2.730469,-4.381389,5.822698,6.737283,-0.03728426,-0.008522115,-0.1310275,-125,948,1426
2485.879,2.734375,-4.34787,5.741296,6.694188,-0.01917476,0.007456851,-0.1065264,-119,992,1407
2485.883,2.738281,-4.242525,5.722142,6.617573,-0.01384844,0.02556635,-0.08948221,-128,972,1397
2485.887,2.742188,-4.151546,5.621585,6.689399,-0.0298274,0.04048005,-0.07669904,-99,938,1396
2485.891,2.746094,-4.22816,5.66947,6.646304,-0.04261058,0.04687164,-0.07456851,-136,908,1380
2485.895,2.75,-4.266467,5.573701,6.703765,-0.04367584,0.04580637,-0.07243798,-124,954,1373
2485.898,2.753906,-4.314351,5.683835,6.694188,-0.05858954,0.05113269,-0.06924219,-122,926,1418
2485.902,2.757812,-4.419696,5.645528,6.713341,-0.06178534,0.0479369,-0.06817692,-94,924,1437
2485.906,2.761719,-4.381389,5.592855,6.727707,-0.0660464,0.03834952,-0.07350325,-106,955,1416
2485.91,2.765625,-4.376601,5.631162,6.646304,-0.06498113,0.03089267,-0.0809601,-100,945,1362
2485.914,2.769531,-4.304775,5.626374,6.742072,-0.07989483,0.02130529,-0.08522115,-120,930,1412
2485.918,2.773438,-4.357447,5.626374,6.660669,-0.09374327,0.00958738,-0.08735168,-103,886,1421
2485.922,2.777344,-4.448427,5.693412,6.655881,-0.1043959,-0.005326322,-0.09906959,-104,956,1447
2485.926,2.78125,-4.376601,5.6982,6.612785,-0.1171791,-0.02450108,-0.1139833,-143,946,1405
2485.93,2.785156,-4.395754,5.626374,6.651092,-0.1374191,-0.0479369,-0.1320928,-114,931,1383
2485.934,2.789062,-4.34787,5.415684,6.584055,-0.1565939,-0.06391587,-0.1459412,-117,937,1412
2485.938,2.792969,-4.242525,5.114015,6.689399,-0.1747034,-0.07243798,-0.1661813,-126,987,1434
2485.941,2.796875,-4.113238,4.91769,6.818686,-0.2024002,-0.08415589,-0.1842907,-96,961,1401
2485.945,2.800781,-3.936068,4.783615,6.904878,-0.2226403,-0.1075917,-0.221575,-103,935,1383
2485.949,2.804688,-3.864241,4.630386,7.043741,-0.2386192,-0.1193096,-0.257794,-116,933,1407
2485.953,2.808594,-3.849876,4.793192,7.105991,-0.2450108,-0.1235707,-0.2865561,-128,947,1415
2485.957,2.8125,-3.89776,4.865018,7.029376,-0.2535329,-0.1278317,-0.298274,-69,937,1400
2485.961,2.816406,-4.060566,5.080496,6.981492,-0.2609898,-0.1278317,-0.314253,-65,971,1402
2485.965,2.820312,-4.022259,5.161899,6.967127,-0.273773,-0.1225054,-0.3270362,-90,975,1410
2485.969,2.824219,-3.878607,5.305551,6.871359,-0.2812298,-0.1171791,-0.3270362,-99,974,1415
2485.973,2.828125,-3.950433,5.190629,6.976704,-0.298274,-0.1022654,-0.3238404,-127,962,1393
2485.977,2.832031,-4.098873,5.133168,7.015011,-0.314253,-0.08735168,-0.3408846,-120,969,1421
2485.98,2.835938,-4.252102,4.836287,7.101202,-0.3195793,-0.07989483,-0.3589941,-110,947,1426
2485.984,2.839844,-4.209007,4.884171,7.058106,-0.3153183,-0.08415589,-0.3579289,-90,960,1385
2485.988,2.84375,-4.266467,4.898537,7.125144,-0.314253,-0.09267801,-0.3600594,-122,957,1417
2485.992,2.847656,-4.367024,5.046977,6.933608,-0.3174488,-0.08841695,-0.3643204,-113,913,1398
2485.996,2.851562,-4.189853,5.319916,6.943185,-0.3398194,-0.1022654,-0.3856257,-125,931,1422
2486,2.855469,-4.218583,5.453991,7.019799,-0.3312972,-0.1139833,-0.3984089,-130,965,1419
2486.004,2.859375,-4.563348,5.410896,6.95755,-0.3387541,-0.1182444,-0.4410195,-134,937,1401
2486.008,2.863281,-4.55856,5.372589,6.952762,-0.3494067,-0.1182444,-0.4676511,-90,928,1390
2486.012,2.867188,-4.252102,5.401319,6.943185,-0.3526025,-0.1416802,-0.3984089,-104,927,1403
2486.016,2.871094,-4.247314,5.396531,6.967127,-0.3728426,-0.1352886,-0.4005394,-130,985,1416
2486.02,2.875,-4.362235,5.597643,6.919243,-0.3994742,-0.1150486,-0.4388889,-124,981,1389
2486.023,2.878906,-4.644751,5.655104,6.890512,-0.4175837,-0.1171791,-0.4814995,-124,909,1408
2486.027,2.882812,-4.448427,5.358223,7.005434,-0.4335626,-0.144876,-0.4644553,-118,954,1439
2486.031,2.886719,-4.477157,5.525817,6.900089,-0.4335626,-0.1629855,-0.3994742,-118,932,1425
2486.035,2.890625,-4.596867,5.257667,7.120356,-0.4601942,-0.1757686,-0.390952,-122,920,1388
2486.039,2.894531,-4.783615,5.109226,7.129933,-0.4697816,-0.1842907,-0.4399542,-120,959,1395
2486.043,2.898438,-4.702212,4.644751,7.307103,-0.4410195,-0.1864213,-0.495348,-80,926,1414
2486.047,2.902344,-4.525041,4.089296,7.412448,-0.4175837,-0.185356,-0.4367584,-137,957,1415
2486.051,2.90625,-4.730942,3.643975,7.412448,-0.3877563,-0.1704423,-0.3856257,-131,989,1416
2486.055,2.910156,-5.013458,3.351882,7.671022,-0.3760383,-0.1416802,-0.3834952,-77,950,1411
2486.059,2.914062,-4.458003,3.485958,7.699753,-0.3270362,-0.1502023,-0.3419499,-83,956,1398
2486.062,2.917969,-3.845088,3.270479,7.680599,-0.2833603,-0.149137,-0.2908172,-120,947,1422
2486.066,2.921875,-4.050989,3.624821,7.694964,-0.2695119,-0.1352886,-0.2364887,-118,956,1407
2486.07,2.925781,-4.323928,3.663129,7.704541,-0.2727077,-0.1075917,-0.2226403,-72,961,1378
2486.074,2.929688,-4.520253,3.926491,7.61835,-0.221575,-0.09480853,-0.237554,-124,961,1420
2486.078,2.933594,-4.43885,3.993528,7.565677,-0.1821602,-0.09480853,-0.2396845,-152,944,1384
2486.082,2.9375,-4.209007,3.98874,7.594408,-0.1725728,-0.07350325,-0.2407498,-108,944,1402
2486.086,2.941406,-4.10845,3.730166,7.623138,-0.1576591,-0.05113269,-0.2332929,-101,929,1398
2486.09,2.945312,-4.276044,3.466804,7.661445,-0.1225054,-0.03195793,-0.2173139,-115,952,1440
2486.094,2.949219,-4.429273,3.576937,7.671022,-0.0958738,-0.02237055,-0.2205097,-168,964,1444
2486.098,2.953125,-4.505888,3.854665,7.709329,-0.06391587,-0.01917476,-0.2237055,-93,944,1400
2486.102,2.957031,-4.510676,3.950433,7.718906,-0.0298274,-0.02769688,-0.2194445,-108,917,1429
2486.105,2.960938,-4.400543,4.247314,7.374141,-0.02237055,-0.01597897,-0.2343582,-120,928,1405
2486.109,2.964844,-4.390966,4.405331,7.508216,0.002130529,0.002130529,-0.2247708,-122,965,1418
2486.113,2.96875,-4.481946,4.434061,7.412448,0.0149137,-0.004261058,-0.1981392,-63,926,1405
2486.117,2.972656,-4.453215,4.692635,7.292738,0.02876214,-0.002130529,-0.1885518,-119,945,1411
2486.121,2.976562,-4.481946,4.79798,7.402872,0.03408846,0.002130529,-0.2045308,-121,946,1416
2486.125,2.980469,-4.548983,4.793192,7.254431,0.04261058,0.01384844,-0.2279666,-90,950,1392
2486.129,2.984375,-5.315128,5.238513,6.952762,0.08415589,0.05539375,-0.2822951,-102,926,1409
2486.133,2.988281,-4.750096,4.721366,7.785944,0.1012001,0.09693906,-0.3600594,-109,943,1410
2486.137,2.992188,-3.744531,4.611232,7.311892,0.0958738,-0.005326322,-0.298274,-99,946,1415
2486.141,2.996094,-4.328717,4.539406,7.278373,0.1161138,0.01065264,-0.1917476,-77,952,1413
2486.145,3,-4.630386,4.582502,7.31668,0.0777643,0.07669904,-0.2087918,-106,929,1386
2486.148,3.003906,-4.936844,4.58729,7.326257,0.1033307,0.1075917,-0.2514024,-110,936,1378
2486.152,3.007812,-4.802769,4.390966,7.474698,0.1523328,0.09374327,-0.2695119,-91,951,1420
2486.156,3.011719,-4.400543,4.55856,7.264008,0.1757686,0.1012001,-0.2641856,-87,972,1418
2486.16,3.015625,-4.386177,4.644751,7.359776,0.1778992,0.1342233,-0.2524677,-123,963,1426
2486.164,3.019531,-4.443638,4.644751,7.359776,0.181095,0.1757686,-0.2609898,-112,924,1394
2486.168,3.023438,-4.663905,4.572925,7.297527,0.1906823,0.221575,-0.278034,-101,963,1404
2486.172,3.027344,-4.501099,4.031836,7.627926,0.2407498,0.3195793,-0.3025351,-92,949,1359
2486.176,3.03125,-4.400543,3.653552,7.671022,0.2567287,0.3185141,-0.2993393,-105,933,1382
2486.18,3.035156,-4.515464,3.572149,7.536947,0.3185141,0.3323625,-0.2759035,-123,917,1414
2486.184,3.039062,-4.601656,4.620809,7.781155,0.3387541,0.3856257,-0.2801645,-102,919,1424
2486.188,3.042969,-3.945644,5.204994,8.078036,0.2950782,0.5230448,-0.2769688,-89,972,1439
2486.191,3.046875,-4.285621,5.027823,7.441179,0.1789644,0.6146576,-0.3163835,-88,960,1376
2486.195,3.050781,-4.630386,3.696647,7.096414,0.1896171,0.7808388,-0.334493,-104,967,1380
2486.199,3.054688,-5.540183,5.45878,8.384494,0.3557983,0.8436894,-0.2961435,-71,922,1431
2486.203,3.058594,-2.035071,4.606444,9.303868,0.1789644,1.003479,0.0479369,-90,977,1389
2486.207,3.0625,-2.442086,1.474828,7.484274,0.1842907,1.023719,-0.2482066,-96,913,1368
2486.211,3.066406,-4.247314,2.834735,7.398083,0.3249057,1.114267,-0.4005394,-87,948,1417
2486.215,3.070312,-4.496311,5.051766,8.350975,0.309992,1.141963,-0.2695119,-85,953,1441
2486.219,3.074219,-4.194641,4.984728,8.149862,0.2567287,1.234641,-0.1352886,-118,941,1418
2486.223,3.078125,-4.022259,4.314351,8.226477,0.2844256,1.340103,-0.2439456,-104,957,1415
2486.227,3.082031,-4.031836,3.993528,8.63828,0.2876214,1.416802,-0.3834952,-107,925,1391
2486.23,3.085938,-4.122815,4.175488,8.255207,0.221575,1.474326,-0.4644553,-95,960,1415
2486.234,3.089844,-4.338293,4.424485,7.699753,0.2183792,1.623463,-0.4548679,-92,949,1412
2486.238,3.09375,-4.582502,4.314351,8.135497,0.2258361,1.722533,-0.4548679,-129,929,1415
2486.242,3.097656,-4.67827,4.247314,7.809886,0.2109224,1.815211,-0.4932174,-76,932,1391
2486.246,3.101562,-4.67827,4.424485,7.623138,0.2514024,1.857821,-0.5411543,-106,909,1436
2486.25,3.105469,-4.855441,4.616021,7.838616,0.2844256,1.955826,-0.5837649,-122,948,1429
2486.254,3.109375,-4.893748,4.635174,7.714118,0.2844256,2.029329,-0.6114618,-108,944,1377
2486.258,3.113281,-4.932055,4.639963,7.608773,0.2854909,2.095375,-0.6434197,-74,931,1384
2486.262,3.117188,-5.090073,4.912902,7.536947,0.2822951,2.160356,-0.6860303,-100,939,1426
2486.266,3.121094,-5.348647,5.090073,7.479486,0.2332929,2.258361,-0.7552725,-118,930,1434
2486.27,3.125,-5.415684,5.21936,7.321469,0.1970739,2.336125,-0.8245147,-88,912,1424
2486.273,3.128906,-5.430049,4.903325,7.07726,0.2077266,2.423477,-0.8863,-92,976,1388
2486.277,3.132812,-5.564125,4.687847,7.187393,0.2300971,2.501241,-0.9480853,-96,951,1438
2486.281,3.136719,-5.554548,4.946421,7.19697,0.2119876,2.564091,-1.009871,-115,967,1416
2486.285,3.140625,-5.501875,5.295974,7.149086,0.2173139,2.666357,-1.072721,-103,960,1409
2486.289,3.144531,-5.492299,5.573701,7.331045,0.1917476,2.768622,-1.138768,-90,927,1396
2486.293,3.148438,-5.449203,5.48751,7.417237,0.1842907,2.887932,-1.221858,-67,895,1419
2486.297,3.152344,-5.573701,5.583278,7.819463,0.1970739,2.989132,-1.306014,-88,966,1448
2486.301,3.15625,-5.315128,5.956774,7.843405,0.1544633,3.149987,-1.411475,-95,954,1416
2486.305,3.160156,-5.329493,5.995081,7.76679,0.1235707,3.337473,-1.486044,-86,904,1417
2486.309,3.164062,-5.439626,6.009446,7.867347,0.08415589,3.539874,-1.580852,-79,879,1427
2486.312,3.167969,-5.655104,6.311116,7.603984,0.07350325,3.717773,-1.687379,-131,951,1450
2486.316,3.171875,-6.100426,6.895301,7.484274,0.06391587,3.923369,-1.850364,-72,924,1428
2486.32,3.175781,-5.995081,6.92882,7.608773,0.03408846,4.078898,-2.014415,-64,917,1438
2486.324,3.179688,-5.875371,6.162675,7.230489,0.04580637,4.259992,-2.204032,-86,907,1465
2486.328,3.183594,-5.856217,5.621585,7.594408,0.112918,4.445348,-2.385127,-81,948,1449
2486.332,3.1875,-5.961562,6.29675,8.379706,0.1917476,4.656271,-2.581136,-132,940,1415
2486.336,3.191406,-6.363788,7.062895,8.025364,0.1757686,4.857606,-2.687662,-66,911,1424
2486.34,3.195312,-6.196194,7.383718,7.958326,0.1576591,5.103682,-2.796319,-52,882,1460
2486.344,3.199219,-6.153098,7.508216,8.700529,0.1597897,5.37639,-2.917759,-132,936,1423
2486.348,3.203125,-7.637503,6.560113,4.836287,0.2258361,5.478655,-2.887932,-102,928,1448
2486.352,3.207031,-6.981492,8.69574,7.790732,0.5400891,5.886651,-2.799515,-91,855,1458
2486.355,3.210938,-9.753978,10.00297,9.988609,0.273773,5.931392,-3.073288,-106,890,1449
2486.359,3.214844,-8.303091,10.73081,5.315128,-0.01384844,6.18173,-3.296993,-82,936,1468
2486.363,3.21875,-9.452308,7.551312,6.569689,0.4900216,6.670686,-3.289537,-86,968,1439
2486.367,3.222656,-12.76588,6.090849,10.45787,0.5475459,6.623814,-3.334278,-75,930,1449
2486.371,3.226562,-17.03714,5.612009,9.318233,0.4985438,6.26269,-3.487676,-77,916,1473
2486.375,3.230469,-20.35071,6.359,8.394071,0.716923,5.886651,-3.699663,-96,908,1460
2486.379,3.234375,-21.71062,8.75799,10.7787,0.5784386,5.424327,-4.126834,-89,913,1432
2486.383,3.238281,-18.60295,9.581595,6.612785,0.5954828,5.180381,-4.323908,-47,872,1421
2486.387,3.242188,-17.86553,9.825804,7.551312,0.9086706,5.081311,-4.217382,-60,901,1462
2486.391,3.246094,-17.35317,7.915231,9.83538,0.9235843,4.976915,-4.10979,-91,902,1460
2486.395,3.25,-16.21353,5.051766,9.706094,0.9491506,4.816061,-4.217382,-88,927,1419
2486.398,3.253906,-14.43704,5.880159,8.743624,1.04609,4.667989,-4.434696,-59,903,1435
2486.402,3.257812,-13.67089,9.021352,8.250419,1.174987,4.563593,-4.534831,-61,897,1484
2486.406,3.261719,-13.50809,11.34852,8.073248,1.132376,4.453871,-4.474111,-61,967,1488
2486.41,3.265625,-13.73793,11.27669,6.368576,1.358212,4.362258,-4.317517,-51,918,1464
2486.414,3.269531,-14.20719,10.817,6.521805,1.678857,4.28982,-4.200338,-57,928,1479
2486.418,3.273438,-14.121,10.61589,5.798756,1.992044,4.160923,-4.139618,-19,876,1458
2486.422,3.277344,-14.6573,10.34774,6.033388,2.472479,3.98622,-3.98835,-83,935,1463
2486.426,3.28125,-15.24628,9.662998,6.861782,2.976349,3.772101,-3.82856,-71,887,1439
2486.43,3.285156,-14.87757,8.724471,8.058883,3.617638,3.445065,-3.631486,-20,870,1477
2486.434,3.289062,-14.10185,8.872911,8.504204,4.116182,3.046656,-3.487676,-16,935,1471
2486.438,3.292969,-12.80419,8.772355,9.370905,4.499677,2.521481,-3.315103,-64,921,1452
2486.441,3.296875,-11.58794,8.537723,9.878476,4.769189,2.07407,-3.147856,-52,959,1406
2486.445,3.300781,-10.80264,9.624691,10.88404,4.889564,1.584048,-2.920955,-43,898,1456
2486.449,3.304688,-10.78827,12.1817,11.56399,4.811799,1.229315,-2.784601,-53,953,1476
2486.453,3.308594,-8.690952,18.47366,13.1298,4.322843,0.8554073,-2.6589,-58,933,1482
2486.457,3.3125,-8.183381,20.40817,12.65096,3.985154,0.3611246,-2.349973,-57,974,1469
2486.461,3.316406,-11.03727,22.68745,15.14093,3.225621,-0.2322276,-1.97287,-19,914,1419
2486.465,3.320312,-14.0396,24.21017,16.91264,2.41602,-0.7382283,-1.97287,5,931,1440
2486.469,3.324219,-17.77455,25.84301,19.55105,1.858886,-1.575526,-1.922802,-58,937,1439
2486.473,3.328125,-19.52232,25.91484,19.77611,1.10681,-2.583266,-1.690575,-61,935,1429
2486.477,3.332031,-17.37233,24.20059,17.35317,-0.09267801,-3.687945,-1.279383,-77,917,1453
2486.48,3.335938,-12.43548,22.24213,14.70519,-0.8671253,-4.250405,-1.065264,-24,904,1470
2486.484,3.339844,-7.067683,20.25495,11.23838,-1.27086,-4.600877,-0.8639295,-46,938,1474
2486.488,3.34375,-2.700659,17.18079,8.250419,-1.434911,-4.754275,-0.5656554,-39,945,1436
2486.492,3.347656,0.9289502,10.95108,5.415684,-1.472195,-4.75321,-0.1065264,-14,894,1475
2486.496,3.351562,2.240973,6.009446,4.180276,-1.419997,-4.690359,0.1150486,-3,945,1448
2486.5,3.355469,2.892196,2.140416,3.380613,-1.315602,-4.604073,0.1640507,-46,963,1478
2486.504,3.359375,3.284845,0.2585738,2.700659,-1.171791,-4.484763,0.1118528,-84,963,1446
2486.508,3.363281,3.610456,0.1723825,2.097321,-0.9203885,-4.263188,0.06817692,-20,933,1450
2486.512,3.367188,3.524265,1.182736,1.532289,-0.6870956,-4.088485,0.1097222,-36,941,1450
2486.516,3.371094,3.356671,2.183512,0.9385271,-0.4037352,-3.913782,0.1992044,-54,924,1453
2486.52,3.375,3.332729,3.112462,0.794875,-0.1193096,-3.734817,0.3366236,-95,958,1453
2486.523,3.378906,3.280056,3.892972,1.197101,0.1768339,-3.510046,0.5603291,-31,926,1442
2486.527,3.382812,3.05979,4.405331,1.747767,0.2993393,-3.369431,0.7265103,-66,921,1459
2486.531,3.386719,2.42772,5.042189,2.48997,0.3419499,-3.257579,0.8671253,-47,933,1466
2486.535,3.390625,1.742979,5.975927,3.217807,0.2993393,-3.186206,0.974717,-53,950,1463
2486.539,3.394531,0.9481039,7.374141,3.653552,0.1885518,-3.131877,1.121723,-26,913,1426
2486.543,3.398438,0.3926491,8.470685,3.859453,0.05645902,-3.100985,1.27086,-16,930,1453
2486.547,3.402344,0.04788403,9.141062,3.955221,-0.1012001,-3.070092,1.460478,-32,960,1484
2486.551,3.40625,-0.08140286,9.294291,3.945644,-0.2290319,-3.047722,1.663943,-41,947,1400
2486.555,3.410156,-0.1628057,8.954314,3.998317,-0.3281014,-3.028547,1.867409,-56,895,1421
2486.559,3.414062,-0.1963245,8.082825,3.969586,-0.4399542,-2.998719,2.119876,-44,947,1445
2486.562,3.417969,-0.2873042,7.307103,3.787627,-0.5017395,-2.977414,2.302036,-68,924,1496
2486.566,3.421875,-0.5171476,6.665457,3.715801,-0.5177185,-2.955044,2.475675,-76,914,1411
2486.57,3.425781,-0.6464344,6.224924,3.643975,-0.4974785,-2.930542,2.649313,-43,886,1418
2486.574,3.429688,-1.04866,5.884948,3.648763,-0.386691,-2.909237,2.886867,-26,893,1457
2486.578,3.433594,-1.532289,5.640739,3.672705,-0.273773,-2.897519,3.074353,-23,928,1416
2486.582,3.4375,-2.06859,5.477933,3.787627,-0.1438107,-2.900715,3.255448,-70,980,1407
2486.586,3.441406,-2.595315,5.434838,3.916914,-0.01704423,-2.917759,3.422695,-46,916,1429
2486.59,3.445312,-2.925714,5.750872,4.027047,0.1320928,-2.968892,3.612312,-32,925,1459
2486.594,3.449219,-3.083732,5.971139,3.907337,0.2130529,-2.998719,3.732687,-73,935,1460
2486.598,3.453125,-3.198653,6.076484,3.77805,0.2567287,-2.996589,3.824299,-76,921,1433
2486.602,3.457031,-3.347094,6.119579,3.53863,0.2684466,-2.96037,3.885019,-54,917,1425
2486.605,3.460938,-3.543418,6.086061,3.620033,0.2641856,-2.902846,3.938283,-50,922,1473
2486.609,3.464844,-3.921702,6.009446,3.696647,0.2514024,-2.8613,3.964914,-84,931,1454
2486.613,3.46875,-4.328717,5.827487,3.600879,0.2439456,-2.819755,3.978763,-69,976,1435
2486.617,3.472656,-4.668693,5.621585,3.734955,0.2439456,-2.769688,3.980893,-63,897,1391
2486.621,3.476562,-5.085284,5.372589,3.854665,0.2641856,-2.721751,3.975567,-39,912,1449
2486.625,3.480469,-5.391742,5.252878,4.012682,0.2886867,-2.67914,3.96811,-103,942,1428
2486.629,3.484375,-5.702988,5.109226,4.218583,0.3376888,-2.641856,3.96811,-29,938,1435
2486.633,3.488281,-6.042965,5.142745,4.563348,0.3973436,-2.616289,3.972371,-98,920,1446
2486.637,3.492188,-6.473921,5.334281,4.970363,0.4889564,-2.609898,3.993676,-65,917,1433
2486.641,3.496094,-6.895301,5.554548,5.353435,0.5677859,-2.612028,4.014982,-79,916,1446
2486.645,3.5,-7.240066,5.760449,5.602432,0.6466155,-2.615224,4.040548,-106,988,1431
2486.648,3.503906,-7.536947,5.923255,5.865794,0.7265103,-2.621616,4.060788,-93,902,1457
2486.652,3.507812,-8.039729,6.339846,6.373365,0.8266452,-2.640791,4.098072,-75,909,1437
2486.656,3.511719,-8.432378,6.679823,6.684611,0.8894958,-2.663161,4.122573,-71,936,1456
2486.66,3.515625,-8.762778,6.981492,6.856994,0.9502159,-2.698315,4.140683,-103,904,1442
2486.664,3.519531,-9.141062,7.307103,7.110779,0.9981528,-2.736664,4.149205,-137,917,1430
2486.668,3.523438,-9.44752,7.671022,7.335834,1.051416,-2.776079,4.163053,-136,948,1422
2486.672,3.527344,-9.797073,7.73806,7.575254,1.099353,-2.810168,4.171576,-112,940,1437
2486.676,3.53125,-9.979033,7.824251,7.685387,1.137702,-2.853843,4.172641,-134,937,1402
2486.68,3.535156,-10.26634,8.063671,7.800309,1.174987,-2.887932,4.16838,-83,909,1402
2486.684,3.539062,-10.60631,8.169016,7.967903,1.236772,-2.916694,4.159858,-117,953,1449
2486.688,3.542969,-11.05642,8.45632,8.178593,1.279383,-2.931608,4.142813,-124,929,1447
2486.691,3.546875,-11.52569,8.657433,8.394071,1.316667,-2.949717,4.1279,-97,925,1405
2486.695,3.550781,-12.05241,9.021352,8.729259,1.350755,-2.988067,4.117247,-117,931,1403
2486.699,3.554688,-12.55998,9.342175,8.801085,1.372061,-3.020025,4.098072,-105,933,1480
2486.703,3.558594,-12.93827,9.677363,8.916007,1.385909,-3.038134,4.063984,-127,962,1417
2486.707,3.5625,-13.39795,9.883264,8.992621,1.383779,-3.055178,4.034156,-95,931,1414
2486.711,3.566406,-13.89116,9.888053,9.054871,1.363538,-3.063701,4.007525,-141,916,1404
2486.715,3.570312,-14.39394,9.830592,9.006987,1.344364,-3.070092,3.96811,-143,955,1414
2486.719,3.574219,-14.8249,9.658209,8.834604,1.330515,-3.070092,3.894607,-128,950,1437
2486.723,3.578125,-15.18403,9.71567,8.719682,1.314536,-3.057309,3.833887,-113,963,1393
2486.727,3.582031,-15.56231,9.624691,8.508993,1.300688,-3.020025,3.778493,-95,918,1392
2486.73,3.585938,-15.88792,9.519346,8.437167,1.286839,-2.974218,3.724164,-100,937,1444
2486.734,3.589844,-16.19438,9.294291,8.398859,1.296427,-2.912433,3.647465,-118,969,1407
2486.738,3.59375,-16.37155,9.14585,8.365341,1.310275,-2.851713,3.58568,-132,994,1374
2486.742,3.597656,-16.38592,9.150639,8.403648,1.334776,-2.786732,3.535613,-123,948,1405
2486.746,3.601562,-16.65407,9.102755,8.437167,1.366734,-2.718555,3.499394,-135,988,1441
2486.75,3.605469,-17.07545,8.90643,8.609549,1.405084,-2.607767,3.467436,-130,942,1447
2486.754,3.609375,-17.4681,8.75799,8.810662,1.447694,-2.53746,3.450392,-169,981,1380
2486.758,3.613281,-17.91342,8.561665,8.983045,1.499892,-2.462891,3.440804,-129,913,1422
2486.762,3.617188,-18.3348,8.279149,9.069236,1.55209,-2.384062,3.445065,-130,951,1437
2486.766,3.621094,-18.93814,7.862558,9.069236,1.63305,-2.281796,3.470632,-128,976,1430
2486.77,3.625,-19.29248,7.369353,9.097966,1.694836,-2.204032,3.506851,-139,967,1415
2486.773,3.628906,-19.56063,6.828263,9.02614,1.741707,-2.11668,3.544135,-109,980,1405
2486.777,3.632812,-19.86709,6.244078,8.920795,1.780057,-2.028263,3.579289,-139,962,1439
2486.781,3.636719,-20.22143,5.540183,8.623914,1.79284,-1.908954,3.599529,-151,988,1443
2486.785,3.640625,-20.41775,4.970363,8.2169,1.753425,-1.804558,3.594202,-170,961,1415
2486.789,3.644531,-20.59013,4.443638,7.781155,1.701227,-1.687379,3.569701,-160,969,1430
2486.793,3.648438,-20.82955,3.931279,7.474698,1.619202,-1.560612,3.535613,-180,963,1420
2486.797,3.652344,-21.32276,3.155558,6.914454,1.44876,-1.380583,3.46424,-181,959,1448
2486.801,3.65625,-21.94046,2.542642,6.47871,1.293231,-1.241033,3.389671,-135,977,1434
2486.805,3.660156,-22.60605,1.814805,6.129156,1.120658,-1.103614,3.295928,-138,994,1391
2486.809,3.664062,-23.24291,1.053449,5.612009,0.9289106,-0.9683254,3.196859,-118,971,1419
2486.812,3.667969,-23.85583,-0.1005565,4.654328,0.6711166,-0.7946873,3.053048,-127,1002,1403
2486.816,3.671875,-24.3203,-1.053449,4.022259,0.4900216,-0.6593987,2.945456,-154,949,1411
2486.82,3.675781,-24.78478,-2.135628,3.265691,0.3078614,-0.535828,2.824016,-145,961,1426
2486.824,3.679688,-25.35938,-3.280056,2.542642,0.1565939,-0.4101268,2.695119,-134,985,1448
2486.828,3.683594,-25.89569,-4.616021,1.613692,0.04154531,-0.2918825,2.5577,-154,994,1413
2486.832,3.6875,-25.69457,-6.382942,0.8858546,-0.04154531,-0.1502023,2.342516,-132,977,1399
2486.836,3.691406,-25.41206,-7.469909,0.009576807,-0.05645902,-0.04261058,2.165683,-164,982,1359
2486.84,3.695312,-25.11039,-8.279149,-0.6847417,-0.06817692,0.07882957,1.980327,-128,959,1422
2486.844,3.699219,-25.0242,-8.858546,-1.115698,-0.0809601,0.2173139,1.774731,-163,1015,1436
2486.848,3.703125,-25.25883,-9.370905,-1.292869,-0.09800433,0.4101268,1.483913,-146,983,1423
2486.852,3.707031,-25.61796,-9.581595,-1.264138,-0.09800433,0.531567,1.258077,-154,932,1430
2486.855,3.710938,-25.77598,-9.528923,-1.173159,-0.09161274,0.6253102,1.029045,-149,966,1444
2486.859,3.714844,-25.685,-9.385271,-1.058237,-0.09267801,0.7147924,0.813862,-135,967,1430
2486.863,3.71875,-25.39769,-8.810662,-0.6991069,-0.128897,0.8341021,0.5368933,-177,988,1402
2486.867,3.722656,-25.16785,-8.394071,-0.2442086,-0.185356,0.9289106,0.3323625,-145,960,1346
2486.871,3.726562,-25.07687,-7.747637,0.4022259,-0.2588593,1.013066,0.1384844,-142,995,1411
2486.875,3.730469,-24.92843,-7.010222,1.187524,-0.3440804,1.081243,-0.05006743,-154,943,1451
2486.879,3.734375,-24.76562,-6.660669,-0.225055,-0.2332929,1.146225,-0.2727077,-148,994,1446
2486.883,3.738281,-28.62986,-2.552219,2.403778,-1.480718,1.568069,-0.592287,-119,942,1407
2486.887,3.742188,-25.9723,-6.655881,2.15957,-2.266883,1.986718,-1.262338,-146,946,1396
2486.891,3.746094,-19.72822,2.298434,12.967,-1.725728,1.496697,-1.271926,-150,966,1419
2486.895,3.75,-3.734955,11.09473,8.446743,-1.588309,0.1885518,-0.4250405,-159,986,1405
2486.898,3.753906,3.500323,9.069236,5.736507,-1.407214,0.8191884,-0.5305017,-123,964,1383
2486.902,3.757812,9.979033,8.57603,15.63414,-1.404019,1.497762,-1.377387,-135,943,1437
2486.906,3.761719,15.02122,10.46745,20.37944,-0.7233146,1.040763,-2.204032,-165,960,1418
2486.91,3.765625,20.28846,14.01087,15.41866,0.1352886,0.2343582,-3.067962,-172,973,1430
2486.914,3.769531,24.19101,11.58794,6.861782,0.6892261,0.7403588,-3.919108,-142,972,1401
2486.918,3.773438,19.18234,6.909666,9.797073,0.974717,1.708684,-4.844823,-134,962,1430
2486.922,3.777344,2.365471,-0.9624691,10.3238,0.02663161,2.349973,-5.469068,-129,997,1449
2486.926,3.78125,-26.95871,-4.01747,7.460332,-1.908954,2.3553,-5.213404,-135,979,1380
2486.93,3.785156,-37.20111,5.521029,6.823475,-1.921737,2.010154,-4.338822,-143,974,1418
2486.934,3.789062,-31.35925,12.78983,7.244854,-1.115332,1.597897,-3.320429,-85,955,1452
2486.938,3.792969,-16.79772,11.47301,8.815451,-0.4836301,1.616006,-2.503371,-117,943,1450
2486.941,3.796875,-1.762132,6.900089,11.79863,-0.4474111,2.01335,-1.718272,-134,970,1401
2486.945,3.800781,0.7086837,5.702988,12.78025,-0.4687164,1.99311,-1.399757,-139,933,1400
2486.949,3.804688,-3.902549,8.355764,12.7994,-0.9076053,1.95263,-1.445564,-151,891,1443
2486.953,3.808594,-10.60631,9.907206,10.83137,-1.274056,1.990979,-1.668204,-161,952,1444
2486.957,3.8125,-15.34683,8.073248,11.91834,-0.9108011,1.677791,-1.710815,-148,978,1446
2486.961,3.816406,-11.74116,5.784391,9.155427,-0.6551376,1.319863,-1.548894,-171,926,1412
2486.965,3.820312,-5.482722,4.419696,6.445191,-0.3611246,1.223989,-1.350755,-120,933,1456
2486.969,3.824219,-0.6081272,4.299986,5.305551,-0.2439456,1.278317,-1.233576,-115,946,1432
2486.973,3.828125,0.4501099,5.181052,4.410119,-0.3536678,1.397627,-1.178182,-111,941,1425
2486.977,3.832031,-2.082955,7.206547,5.066131,-0.6306365,1.609615,-1.159008,-77,918,1426
2486.98,3.835938,-5.525817,8.341399,6.526594,-0.7872304,1.678857,-1.168595,-160,898,1426
2486.984,3.839844,-7.929596,9.11712,7.814674,-0.9544769,1.666074,-1.168595,-119,953,1452
2486.988,3.84375,-14.33648,11.12825,18.43056,-1.433846,1.526524,-1.254882,-137,973,1398
2486.992,3.847656,-15.4426,15.87835,9.126697,-3.333212,0.7424893,-1.946238,-127,985,1421
2486.996,3.851562,-11.73638,9.667786,0.7182605,-1.687379,0.6775082,-1.923868,-105,921,1428
2487,3.855469,-7.283161,8.743624,8.815451,-0.9512811,0.6625945,-1.374191,-150,968,1426
2487.004,3.859375,-2.987964,8.504204,10.37647,-1.573396,0.495348,-0.8319715,-130,968,1427
2487.008,3.863281,-3.797204,1.757344,5.597643,-1.558482,0.5422196,-0.7275756,-117,956,1448
2487.012,3.867188,-5.808333,2.193089,7.967903,-1.330515,0.5464807,-0.8852347,-107,955,1438
2487.016,3.871094,-6.325481,5.391742,8.719682,-1.34969,0.3185141,-0.9470201,-110,933,1472
2487.02,3.875,-5.707777,5.81791,7.809886,-1.331581,0.1917476,-0.9416938,-109,950,1454
2487.023,3.878906,-5.085284,5.72693,7.297527,-1.200553,0.1214401,-0.9768475,-96,956,1408
2487.027,3.882812,-5.051766,6.497863,7.244854,-1.080178,0.02450108,-0.9438243,-126,911,1396
2487.031,3.886719,-5.0374,7.062895,6.74686,-1.019458,-0.03515373,-0.8468852,-94,941,1458
2487.035,3.890625,-5.482722,6.708553,6.651092,-0.9970875,-0.01171791,-0.753142,-139,940,1379
2487.039,3.894531,-5.430049,5.171476,7.398083,-0.9491506,-0.05539375,-0.6753777,-99,909,1403
2487.043,3.898438,-5.185841,4.218583,6.742072,-0.8724516,-0.1352886,-0.6711166,-125,954,1450
2487.047,3.902344,-4.898537,4.759673,6.967127,-0.8149273,-0.1533981,-0.6572682,-110,954,1417
2487.051,3.90625,-4.520253,5.209783,7.37893,-0.8191884,-0.169377,-0.6359629,-136,934,1416
2487.055,3.910156,-4.486734,5.032612,7.206547,-0.8064052,-0.1778992,-0.6040049,-111,952,1424
2487.059,3.914062,-4.429273,4.730942,7.426814,-0.7627293,-0.1874865,-0.5890912,-113,954,1456
2487.062,3.917969,-4.357447,4.716577,7.321469,-0.7115966,-0.2024002,-0.5816344,-143,977,1418
2487.066,3.921875,-4.410119,4.692635,7.264008,-0.6679208,-0.205596,-0.5763081,-106,980,1420
2487.07,3.925781,-4.525041,4.352659,7.594408,-0.6508766,-0.1778992,-0.5603291,-88,922,1444
2487.074,3.929688,-4.046201,3.715801,7.661445,-0.6306365,-0.1981392,-0.5550028,-141,915,1437
2487.078,3.933594,-4.01747,3.768473,7.656657,-0.5763081,-0.2162487,-0.5283712,-147,975,1421
2487.082,3.9375,-4.304775,3.998317,7.800309,-0.5347627,-0.2183792,-0.5102617,-117,970,1453
2487.086,3.941406,-4.788403,4.338293,7.536947,-0.499609,-0.2002697,-0.5177185,-138,947,1426
2487.09,3.945312,-4.817134,4.323928,7.594408,-0.44315,-0.1800297,-0.5038701,-144,941,1452
2487.094,3.949219,-4.663905,4.443638,7.536947,-0.3994742,-0.1747034,-0.4538026,-118,965,1429
2487.098,3.953125,-4.405331,4.443638,7.374141,-0.3643204,-0.165116,-0.3760383,-85,957,1427
2487.102,3.957031,-4.223372,4.161122,7.594408,-0.3462109,-0.1395496,-0.3270362,-92,967,1405
2487.105,3.960938,-4.343082,4.141969,7.536947,-0.3227751,-0.1118528,-0.298274,-122,935,1427
2487.109,3.964844,-4.64954,4.22816,7.493851,-0.2801645,-0.1065264,-0.2844256,-133,954,1419
2487.113,3.96875,-4.596867,4.43885,7.369353,-0.2663161,-0.1097222,-0.2705772,-155,911,1425
2487.117,3.972656,-4.448427,4.673482,7.177817,-0.2535329,-0.1182444,-0.2641856,-87,943,1442
2487.121,3.976562,-4.544195,5.003881,7.082049,-0.2535329,-0.1065264,-0.2812298,-103,930,1417
2487.125,3.980469,-4.314351,4.865018,7.206547,-0.2652508,-0.1012001,-0.2503371,-110,961,1422
2487.129,3.984375,-4.410119,4.616021,7.249643,-0.237554,-0.09161274,-0.1821602,-81,959,1413
2487.133,3.988281,-4.477157,4.180276,7.445967,-0.2343582,-0.07882957,-0.1565939,-131,904,1388
2487.137,3.992188,-4.304775,4.031836,7.359776,-0.2300971,-0.07456851,-0.2077266,-101,931,1437
2487.141,3.996094,-4.376601,4.434061,7.350199,-0.2098571,-0.09161274,-0.2503371,-89,940,1465
2487.145,4,-4.180276,4.817134,7.19697,-0.201335,-0.1075917,-0.2482066,-121,950,1429
2487.148,4.003906,-4.175488,4.941632,7.125144,-0.1981392,-0.08948221,-0.2226403,-127,936,1405
2487.152,4.007812,-4.161122,4.663905,7.206547,-0.2226403,-0.06711166,-0.2290319,-106,912,1436
2487.156,4.011719,-4.328717,4.726154,7.144298,-0.2162487,-0.06072007,-0.2588593,-130,938,1426
2487.16,4.015625,-4.323928,4.673482,7.350199,-0.2087918,-0.06391587,-0.2769688,-114,957,1414
2487.164,4.019531,-4.185065,4.553772,7.297527,-0.2066613,-0.06391587,-0.2673814,-84,956,1414
2487.168,4.023438,-4.386177,4.295198,7.354988,-0.1938781,-0.03728426,-0.2514024,-120,937,1448
2487.172,4.027344,-4.410119,4.132392,7.465121,-0.201335,-0.02876214,-0.2503371,-112,933,1408
2487.176,4.03125,-4.481946,4.07972,7.412448,-0.1864213,-0.02556635,-0.2343582,-144,940,1444
2487.18,4.035156,-4.635174,3.936068,7.474698,-0.1704423,-0.01278317,-0.2269013,-120,899,1379
2487.184,4.039062,-6.488286,5.066131,6.995857,-0.1267665,0.02450108,-0.241815,-77,967,1438
2487.188,4.042969,-3.801992,2.959233,8.432378,-0.1587244,-0.01384844,-0.2396845,-130,956,1430
2487.191,4.046875,-3.519476,3.529053,7.082049,-0.06924219,-0.05539375,-0.2364887,-107,952,1423
2487.195,4.050781,-3.912126,4.055778,7.728483,-0.06924219,-0.03089267,-0.1960087,-87,935,1407
2487.199,4.054688,-4.333505,4.271256,7.484274,-0.1310275,0.008522115,-0.1736381,-90,938,1422
2487.203,4.058594,-4.802769,4.070143,7.450756,-0.1065264,0.01278317,-0.1778992,-81,948,1413
2487.207,4.0625,-4.836287,4.204218,7.445967,-0.06924219,-0.006391587,-0.1864213,-96,928,1415
2487.211,4.066406,-4.501099,4.510676,7.388506,-0.06178534,-0.01597897,-0.1842907,-87,874,1426
2487.215,4.070312,-4.266467,4.673482,7.28795,-0.07137272,0.004261058,-0.1736381,-101,939,1408
2487.219,4.074219,-4.276044,4.606444,7.331045,-0.07456851,0.004261058,-0.1715076,-113,967,1425
2487.223,4.078125,-4.357447,4.596867,7.422025,-0.06391587,-0.004261058,-0.1789644,-97,936,1380
2487.227,4.082031,-4.496311,4.548983,7.350199,-0.06178534,-0.00958738,-0.1874865,-90,926,1393
2487.23,4.085938,-4.472369,4.448427,7.398083,-0.05432849,-0.01384844,-0.1970739,-102,948,1456
2487.234,4.089844,-4.501099,4.462792,7.350199,-0.04367584,-0.02556635,-0.1960087,-103,944,1445
2487.238,4.09375,-4.472369,4.505888,7.422025,-0.03728426,-0.03834952,-0.1970739,-119,929,1434
2487.242,4.097656,-4.419696,4.659116,7.273585,-0.03195793,-0.05539375,-0.1981392,-67,941,1387
2487.246,4.101562,-4.510676,4.673482,7.240066,-0.03621899,-0.05006743,-0.1981392,-95,915,1427
2487.25,4.105469,-4.424485,4.58729,7.31668,-0.04474111,-0.03089267,-0.1928129,-107,1005,1470
2487.254,4.109375,-4.486734,4.424485,7.369353,-0.03941478,-0.0298274,-0.1874865,-121,943,1411
2487.258,4.113281,-4.520253,4.276044,7.321469,-0.03408846,-0.02663161,-0.1885518,-98,911,1440
2487.262,4.117188,-4.601656,4.285621,7.484274,-0.02876214,-0.02556635,-0.1842907,-121,931,1436
2487.266,4.121094,-4.630386,4.280833,7.398083,-0.01704423,-0.01917476,-0.1821602,-90,940,1427
2487.27,4.125,-4.58729,4.266467,7.398083,-0.006391587,-0.00958738,-0.1821602,-136,920,1403
2487.273,4.128906,-4.491522,4.194641,7.469909,-0.003195793,-0.004261058,-0.1725728,-106,960,1450
2487.277,4.132812,-4.515464,4.161122,7.422025,0.006391587,-0.002130529,-0.1565939,-136,914,1412
2487.281,4.136719,-4.568137,4.161122,7.455544,0.0181095,0.01278317,-0.1470065,-166,941,1459
2487.285,4.140625,-4.563348,4.223372,7.465121,0.02663161,0.02130529,-0.1395496,-75,926,1384
2487.289,4.144531,-4.553772,4.146757,7.450756,0.04048005,0.02343582,-0.1267665,-80,912,1426
2487.293,4.148438,-4.534618,4.161122,7.402872,0.06817692,0.03195793,-0.1342233,-131,928,1406
2487.297,4.152344,-4.515464,4.261679,7.431602,0.07669904,0.04474111,-0.1427454,-101,967,1420
2487.301,4.15625,-4.443638,4.194641,7.445967,0.08522115,0.04687164,-0.1374191,-141,973,1432
2487.305,4.160156,-4.376601,4.132392,7.465121,0.09906959,0.05965481,-0.1363538,-97,924,1410
2487.309,4.164062,-4.395754,4.046201,7.580042,0.1075917,0.0660464,-0.1331581,-98,937,1446
2487.312,4.167969,-4.362235,3.979163,7.5561,0.1246359,0.0809601,-0.1214401,-131,974,1453
2487.316,4.171875,-4.414908,4.003105,7.613561,0.1438107,0.09054748,-0.1161138,-146,919,1382
2487.32,4.175781,-4.43885,4.10845,7.522582,0.1619202,0.1022654,-0.1171791,-68,922,1371
2487.324,4.179688,-4.419696,4.371812,7.369353,0.1874865,0.1118528,-0.1225054,-67,936,1455
2487.328,4.183594,-4.405331,4.472369,7.350199,0.2119876,0.149137,-0.1523328,-142,946,1449
2487.332,4.1875,-4.481946,4.400543,7.354988,0.2258361,0.1821602,-0.1778992,-123,965,1424
2487.336,4.191406,-4.711789,4.357447,7.264008,0.2588593,0.2205097,-0.1917476,-104,949,1430
2487.34,4.195312,-3.62961,3.859453,7.541735,0.2545982,0.1992044,-0.1960087,-110,949,1430
2487.344,4.199219,-4.333505,4.328717,7.350199,0.3067962,0.2141182,-0.1406149,-91,961,1468
2487.348,4.203125,-4.510676,4.539406,7.369353,0.3036004,0.2545982,-0.1533981,-94,972,1405
2487.352,4.207031,-4.472369,4.620809,7.311892,0.3281014,0.298274,-0.1842907,-118,949,1403
2487.355,4.210938,-4.572925,4.625598,7.345411,0.3579289,0.3153183,-0.1992044,-119,945,1429
2487.359,4.214844,-4.280833,4.735731,7.230489,0.3813647,0.3355583,-0.2077266,-98,957,1433
2487.363,4.21875,-4.333505,4.683058,7.139509,0.4048005,0.3696468,-0.2087918,-103,943,1420
2487.367,4.222656,-4.486734,4.429273,7.110779,0.4303668,0.406931,-0.2183792,-107,928,1422
2487.371,4.226562,-4.663905,4.194641,7.043741,0.4910869,0.4442153,-0.2269013,-105,940,1446
2487.375,4.230469,-5.674258,5.72693,7.613561,0.5550028,0.5571333,-0.2695119,-96,982,1450
2487.379,4.234375,-4.802769,5.12838,7.699753,0.5049353,0.6508766,-0.2695119,-126,975,1433
2487.383,4.238281,-2.935291,3.289633,7.762002,0.4825648,0.6498113,-0.3121225,-106,937,1405
2487.387,4.242188,-3.98874,3.433285,7.417237,0.531567,0.6615292,-0.3387541,-82,930,1473
2487.391,4.246094,-4.098873,3.811569,7.833828,0.5038701,0.7392935,-0.2886867,-129,970,1433
2487.395,4.25,-4.132392,4.223372,7.757213,0.4676511,0.8202536,-0.2162487,-119,958,1408
2487.398,4.253906,-4.352659,4.242525,7.694964,0.4548679,0.870321,-0.1917476,-99,941,1394
2487.402,4.257812,-4.414908,4.065354,7.503428,0.4506069,0.9480853,-0.1896171,-105,950,1447
2487.406,4.261719,-4.328717,3.955221,7.723695,0.4846953,1.018393,-0.1981392,-121,906,1446
2487.41,4.265625,-3.888183,4.070143,7.723695,0.5187838,1.087635,-0.1992044,-129,970,1436
2487.414,4.269531,-3.926491,4.209007,7.465121,0.5251754,1.164334,-0.2087918,-117,909,1406
2487.418,4.273438,-4.007894,4.620809,7.422025,0.5273059,1.257012,-0.2045308,-101,944,1448
2487.422,4.277344,-4.237737,4.999093,7.412448,0.5326322,1.332646,-0.1864213,-89,942,1435
2487.426,4.28125,-4.434061,4.946421,7.493851,0.5400891,1.443433,-0.1778992,-110,952,1425
2487.43,4.285156,-4.43885,4.726154,7.479486,0.556068,1.510545,-0.2183792,-104,958,1429
2487.434,4.289062,-4.400543,4.515464,7.489063,0.5763081,1.597897,-0.2748382,-90,927,1433
2487.438,4.292969,-4.256891,4.582502,7.484274,0.5763081,1.690575,-0.3057309,-109,983,1444
2487.441,4.296875,-4.386177,4.860229,7.73806,0.5613944,1.816276,-0.3376888,-155,932,1443
2487.445,4.300781,-4.759673,4.812345,7.795521,0.5251754,1.895105,-0.3739078,-108,939,1433
2487.449,4.304688,-4.759673,4.812345,7.249643,0.5123922,1.992044,-0.406931,-102,890,1453
2487.453,4.308594,-4.817134,4.807557,7.393295,0.5581986,2.0762,-0.4356932,-112,956,1448
2487.457,4.3125,-4.836287,5.056554,7.28795,0.5858954,2.165683,-0.4825648,-111,958,1446
2487.461,4.316406,-4.716577,5.200206,7.082049,0.5912218,2.272209,-0.5123922,-103,921,1436
2487.465,4.320312,-4.855441,5.161899,7.005434,0.6029397,2.391519,-0.5496764,-100,916,1421
2487.469,4.324219,-5.018247,5.161899,7.07726,0.6061355,2.495915,-0.5976133,-131,947,1449
2487.473,4.328125,-5.214571,5.114015,6.756437,0.6263755,2.626942,-0.6700513,-122,932,1419
2487.477,4.332031,-5.233725,5.238513,6.751649,0.660464,2.73773,-0.721184,-108,915,1439
2487.48,4.335938,-5.281609,5.482722,6.828263,0.6753777,2.83893,-0.773382,-116,941,1470
2487.484,4.339844,-5.439626,5.559336,6.722918,0.6828345,2.949717,-0.8245147,-124,934,1435
2487.488,4.34375,-5.363012,5.434838,6.794744,0.6870956,3.12229,-0.9054748,-92,969,1406
2487.492,4.347656,-5.272032,5.473145,6.952762,0.7073356,3.251187,-0.9619338,-113,920,1393
2487.496,4.351562,-5.21936,5.444415,7.024588,0.7084008,3.396063,-1.021589,-95,963,1447
2487.5,4.355469,-5.252878,5.683835,7.297527,0.7041398,3.572897,-1.082309,-117,928,1462
2487.504,4.359375,-5.406107,6.430826,7.460332,0.6711166,3.845605,-1.164334,-151,956,1435
2487.508,4.363281,-5.501875,7.058106,6.991069,0.6412892,4.074636,-1.243164,-90,914,1448
2487.512,4.367188,-5.741296,7.61835,6.71813,0.6668555,4.308995,-1.318797,-125,904,1475
2487.516,4.371094,-5.990293,7.867347,6.684611,0.7307714,4.526309,-1.401888,-106,933,1438
2487.52,4.375,-5.990293,7.546524,7.134721,0.7712515,4.713795,-1.559547,-102,912,1410
2487.523,4.378906,-5.640739,7.594408,6.74686,0.84582,4.974785,-1.869539,-89,932,1419
2487.527,4.382812,-5.468357,7.522582,7.000646,0.9491506,5.244297,-2.059156,-112,914,1432
2487.531,4.386719,-5.990293,7.881712,7.704541,0.9811085,5.543636,-2.200836,-92,940,1466
2487.535,4.390625,-6.981492,9.179369,7.987057,0.9321064,5.814213,-2.312689,-94,961,1464
2487.539,4.394531,-7.560889,10.59674,8.772355,0.9129316,6.109292,-2.439456,-98,891,1449
2487.543,4.398438,-7.580042,11.29106,8.796297,0.9044095,6.277603,-2.582201,-114,928,1463
2487.547,4.402344,-11.81299,10.97981,11.28627,1.008805,6.298909,-2.512959,-109,933,1453
2487.551,4.40625,-9.758766,10.11311,9.787496,1.078048,6.329801,-2.563026,-112,953,1450
2487.555,4.410156,-8.825027,9.538499,10.33816,1.022654,6.570551,-2.903911,-93,922,1432
2487.559,4.414062,-11.73638,9.097966,8.652645,0.9406285,6.622749,-3.147856,-87,928,1469
2487.562,4.417969,-14.91588,8.298303,9.064447,1.023719,6.678143,-3.368366,-111,958,1476
2487.566,4.421875,-17.88469,9.26556,9.629479,1.243164,6.698383,-3.62403,-109,941,1443
2487.57,4.425781,-19.54147,9.481039,11.05642,1.211206,6.42674,-3.971306,-56,895,1452
2487.574,4.429688,-17.85117,8.848969,8.389283,1.40828,6.193447,-4.095942,-92,928,1488
2487.578,4.433594,-17.56865,7.551312,8.619126,1.773665,6.031527,-4.007525,-121,988,1495
2487.582,4.4375,-19.94849,6.852205,13.49851,1.878061,5.782255,-3.985154,-89,967,1475
2487.586,4.441406,-16.21832,11.28627,8.42759,1.504153,5.630988,-4.142813,-57,968,1507
2487.59,4.445312,-15.80652,13.35965,9.921572,2.243447,5.346562,-3.895672,-80,907,1480
2487.594,4.449219,-16.95095,11.36288,10.08917,2.67701,5.004612,-3.729491,-95,957,1447
2487.598,4.453125,-17.23825,12.03805,10.68772,2.771818,4.764928,-3.811516,-74,957,1471
2487.602,4.457031,-16.54872,13.21599,8.686164,2.832538,4.479437,-3.970241,-104,934,1498
2487.605,4.460938,-16.4338,12.9239,9.605537,3.252252,4.207795,-3.815777,-88,941,1482
2487.609,4.464844,-15.94538,11.49217,10.53928,3.671967,3.840278,-3.619769,-83,970,1490
2487.613,4.46875,-15.03559,11.06121,9.318233,3.882889,3.440804,-3.62616,-97,927,1435
2487.617,4.472656,-12.14339,12.28704,8.892065,4.139618,3.001915,-3.724164,-90,929,1465
2487.621,4.476562,-10.22803,13.09628,9.562441,4.337757,2.606702,-3.693272,-59,900,1475
2487.625,4.480469,-9.016563,13.44584,8.585607,4.543353,2.387258,-3.556918,-50,944,1477
2487.629,4.484375,-9.346963,13.57512,6.684611,4.57318,2.162487,-3.482349,-53,932,1479
2487.633,4.488281,-10.26634,16.20396,7.843405,4.628574,1.875931,-3.474893,-46,949,1464
2487.637,4.492188,-10.78827,20.29804,7.206547,3.923369,1.469,-3.473827,-62,914,1495
2487.641,4.496094,-10.29986,23.85583,6.521805,3.42376,1.202684,-3.211772,-49,955,1497
2487.645,4.5,-8.729259,32.96337,20.47042,2.808037,0.6221144,-2.325472,-18,937,1471
2487.648,4.503906,-8.896853,33.1549,21.16953,1.530785,-0.7467504,-0.7669904,-41,943,1466
2487.652,4.507812,-9.26556,25.06729,15.39951,0.9640643,-1.085504,-0.4399542,-57,929,1470
2487.656,4.511719,-12.12903,20.39381,20.13045,0.8479505,-1.542503,-0.7978831,-79,989,1509
2487.66,4.515625,-12.53125,16.97489,20.51831,0.1981392,-2.430933,-1.301753,-59,961,1480
2487.664,4.519531,-7.781155,16.21832,13.19205,-0.1502023,-3.355583,-1.359277,-44,901,1460
2487.668,4.523438,-2.643199,17.89426,8.978256,-0.1320928,-4.044809,-1.022654,-5,923,1464
2487.672,4.527344,2.154781,18.64604,5.425261,-0.1502023,-4.077832,-0.6625945,-77,951,1496
2487.676,4.53125,5.535394,16.67801,3.08852,-0.1406149,-3.818973,-0.149137,-49,971,1502
2487.68,4.535156,6.679823,12.14339,3.055001,-0.08735168,-3.530286,0.3824299,-52,924,1453
2487.684,4.539062,5.300762,6.186617,4.065354,-0.1640507,-3.353452,0.6977482,-8,888,1523
2487.688,4.542969,3.586514,4.486734,4.237737,-0.2695119,-3.330017,0.5890912,-65,991,1485
2487.691,4.546875,2.135628,5.415684,4.367024,-0.2918825,-3.351322,0.4037352,-55,950,1457
2487.695,4.550781,1.173159,7.273585,4.223372,-0.2514024,-3.388606,0.3249057,-58,937,1504
2487.699,4.554688,0.5746084,8.762778,3.643975,-0.1704423,-3.419499,0.4420847,-38,934,1496
2487.703,4.558594,0.5793968,8.930372,3.270479,-0.1150486,-3.426956,0.6008091,-61,948,1489
2487.707,4.5625,1.000776,8.791508,3.371036,-0.1075917,-3.428021,0.757403,-103,933,1507
2487.711,4.566406,1.278504,8.671798,3.529053,-0.1778992,-3.435478,0.8969527,-79,884,1484
2487.715,4.570312,1.13964,8.743624,3.873818,-0.3792341,-3.426956,1.067395,-47,905,1461
2487.719,4.574219,0.593762,8.939949,4.156334,-0.5581986,-3.416303,1.163269,-51,944,1492
2487.723,4.578125,-0.1915361,8.992621,4.357447,-0.7201188,-3.421629,1.245294,-43,955,1454
2487.727,4.582031,-0.9481039,9.002198,4.572925,-0.8447547,-3.445065,1.335842,-25,965,1456
2487.73,4.585938,-1.455675,8.887277,4.692635,-0.9438243,-3.513242,1.490305,-25,949,1490
2487.734,4.589844,-1.517924,8.45632,4.630386,-0.9736517,-3.579289,1.63305,-65,960,1487
2487.738,4.59375,-1.551443,7.905654,4.553772,-0.9875001,-3.636813,1.780057,-37,934,1452
2487.742,4.597656,-1.551443,7.259219,4.376601,-0.9800433,-3.698598,1.915345,-61,899,1438
2487.746,4.601562,-1.728614,6.584055,4.247314,-0.9480853,-3.769971,2.082592,-35,906,1502
2487.75,4.605469,-1.896208,6.133945,4.055778,-0.9086706,-3.813647,2.194445,-61,962,1475
2487.754,4.609375,-2.154781,5.81791,3.940856,-0.850081,-3.855192,2.303102,-38,981,1466
2487.758,4.613281,-2.389413,5.530606,3.821146,-0.7701862,-3.892476,2.392584,-43,909,1434
2487.762,4.617188,-2.762909,5.453991,3.648763,-0.6519418,-3.931891,2.491654,-60,918,1457
2487.766,4.621094,-2.949656,5.406107,3.529053,-0.5624596,-3.955327,2.554504,-60,965,1488
2487.77,4.625,-3.126827,5.3678,3.399766,-0.4783037,-3.969175,2.621616,-64,985,1430
2487.773,4.628906,-3.217807,5.310339,3.275268,-0.3962784,-3.969175,2.680205,-13,904,1421
2487.777,4.632812,-3.462016,5.080496,3.117251,-0.298274,-3.948935,2.75797,-62,932,1456
2487.781,4.636719,-3.615245,4.845864,3.126827,-0.2332929,-3.926565,2.803776,-39,941,1462
2487.785,4.640625,-3.715801,4.673482,3.112462,-0.1704423,-3.88928,2.83893,-40,939,1437
2487.789,4.644531,-3.74932,4.683058,3.045425,-0.1118528,-3.844539,2.858104,-67,909,1450
2487.793,4.648438,-3.86903,4.711789,3.050213,-0.03195793,-3.766775,2.888997,-22,932,1439
2487.797,4.652344,-3.979163,4.912902,3.145981,0.03834952,-3.699663,2.92202,-103,926,1462
2487.801,4.65625,-4.19943,5.109226,3.289633,0.1150486,-3.627225,2.967827,-85,915,1431
2487.805,4.660156,-4.453215,5.228936,3.543418,0.1981392,-3.556918,3.026416,-43,862,1449
2487.809,4.664062,-4.912902,5.267244,3.931279,0.2876214,-3.491937,3.087136,-65,889,1462
2487.812,4.667969,-5.300762,5.516241,4.486734,0.4037352,-3.430151,3.174488,-74,935,1463
2487.816,4.671875,-5.731719,5.808333,4.821922,0.4964132,-3.40565,3.252252,-50,918,1438
2487.82,4.675781,-6.186617,6.349423,5.214571,0.5837649,-3.379019,3.335343,-75,946,1417
2487.824,4.679688,-6.646304,6.904878,5.602432,0.6689861,-3.358779,3.434413,-82,896,1456
2487.828,4.683594,-7.28795,7.508216,6.133945,0.7680557,-3.357714,3.576093,-62,961,1423
2487.832,4.6875,-7.805097,7.718906,6.517017,0.8287757,-3.36517,3.681554,-89,926,1432
2487.836,4.691406,-8.140286,7.934384,6.641515,0.8756474,-3.38328,3.76784,-81,873,1418
2487.84,4.695312,-8.422801,8.09719,6.880936,0.9086706,-3.397128,3.840278,-81,910,1437
2487.844,4.699219,-8.647856,8.269573,7.043741,0.938498,-3.428021,3.910586,-68,929,1437
2487.848,4.703125,-8.777143,8.149862,7.105991,0.9608685,-3.435478,3.937217,-55,957,1404
2487.852,4.707031,-8.901642,7.953538,7.072472,0.9864349,-3.433347,3.953196,-83,904,1419
2487.855,4.710938,-9.002198,7.661445,7.043741,1.017328,-3.421629,3.963849,-97,898,1446
2487.859,4.714844,-9.212888,7.206547,7.120356,1.095092,-3.400324,3.962784,-80,915,1413
2487.863,4.71875,-9.466673,7.067683,7.225701,1.16966,-3.391802,3.948935,-108,948,1408
2487.867,4.722656,-9.80665,7.072472,7.307103,1.249555,-3.377954,3.92763,-69,919,1433
2487.871,4.726562,-10.10832,7.278373,7.393295,1.330515,-3.358779,3.891411,-88,891,1428
2487.875,4.730469,-10.45787,7.699753,7.608773,1.413606,-3.343865,3.817908,-97,982,1442
2487.879,4.734375,-10.78348,8.322245,7.694964,1.442368,-3.336408,3.753992,-112,952,1386
2487.883,4.738281,-11.01812,8.848969,7.733271,1.443433,-3.327886,3.673032,-101,908,1385
2487.887,4.742188,-11.20965,9.32781,7.800309,1.417867,-3.301254,3.595267,-77,919,1408
2487.891,4.746094,-11.63103,10.04128,8.149862,1.376322,-3.258644,3.48448,-144,918,1445
2487.895,4.75,-12.16733,10.46266,8.365341,1.32945,-3.222425,3.406716,-108,943,1431
2487.898,4.753906,-12.73715,10.83616,8.710106,1.285774,-3.188336,3.343865,-108,915,1422
2487.902,4.757812,-13.3357,11.17134,8.944737,1.244229,-3.157444,3.294863,-120,937,1433
2487.906,4.761719,-13.97256,11.75553,9.179369,1.180313,-3.148922,3.245861,-97,955,1416
2487.91,4.765625,-14.43704,12.24395,9.241618,1.138768,-3.128682,3.217099,-149,942,1413
2487.914,4.769531,-14.91109,12.57435,9.385271,1.092961,-3.08181,3.206446,-122,941,1427
2487.918,4.773438,-15.48091,12.62223,9.576807,1.065264,-3.024286,3.217099,-142,956,1453
2487.922,4.777344,-16.23269,12.2631,9.753978,1.045024,-2.94013,3.273558,-134,947,1421
2487.926,4.78125,-16.70195,11.78426,9.797073,1.064199,-2.880475,3.341735,-147,954,1425
2487.93,4.785156,-17.16164,11.1905,9.691728,1.111071,-2.809102,3.418434,-114,948,1426
2487.934,4.789062,-17.58302,10.58237,9.605537,1.182444,-2.732403,3.50472,-134,916,1428
2487.938,4.792969,-18.25339,9.883264,9.390059,1.278317,-2.650378,3.598463,-121,947,1427
2487.941,4.796875,-18.87589,9.346963,9.222465,1.415736,-2.528938,3.722034,-128,930,1391
2487.945,4.800781,-19.50796,9.059659,8.939949,1.50948,-2.433064,3.814712,-116,944,1408
2487.949,4.804688,-20.20227,8.743624,8.834604,1.578722,-2.328668,3.900998,-139,938,1430
2487.953,4.808594,-20.78167,8.5473,8.686164,1.611745,-2.221076,3.962784,-139,969,1412
2487.957,4.8125,-21.57655,8.09719,8.350975,1.59044,-2.062352,4.023504,-117,973,1397
2487.961,4.816406,-22.10327,7.685387,8.145074,1.532916,-1.927063,4.054396,-101,929,1405
2487.965,4.820312,-22.65872,7.043741,7.929596,1.444499,-1.788579,4.074636,-156,955,1419
2487.969,4.824219,-23.0801,6.191405,7.532158,1.335842,-1.65116,4.077832,-165,967,1414
2487.973,4.828125,-23.44402,4.836287,6.890512,1.177117,-1.451955,4.070375,-136,952,1388
2487.977,4.832031,-23.63556,3.782839,6.445191,1.039698,-1.285774,4.051201,-132,957,1395
2487.98,4.835938,-23.98032,2.528277,5.904101,0.9139969,-1.116397,4.002198,-117,968,1431
2487.984,4.839844,-24.35861,1.273715,5.324704,0.7819041,-0.958738,3.925499,-152,971,1432
2487.988,4.84375,-24.78956,-0.3639187,4.271256,0.6018744,-0.7552725,3.787015,-148,960,1431
2487.992,4.847656,-25.08166,-1.561019,3.366248,0.4751079,-0.6018744,3.649596,-166,969,1391
2487.996,4.851562,-25.21573,-2.624045,2.705448,0.3643204,-0.4527374,3.487676,-151,973,1438
2488,4.855469,-25.55092,-3.825934,1.733402,0.2663161,-0.2993393,3.295928,-164,951,1455
2488.004,4.859375,-25.96751,-5.281609,0.9720459,0.1342233,-0.0958738,3.008307,-181,991,1427
2488.008,4.863281,-26.20214,-6.560113,0.5410896,0.05113269,0.0479369,2.7601,-153,975,1410
2488.012,4.867188,-26.38889,-7.594408,0.1580173,-0.004261058,0.1800297,2.501241,-158,952,1442
2488.016,4.871094,-26.57564,-8.365341,-0.05267244,-0.03834952,0.2908172,2.239186,-153,1000,1403
2488.02,4.875,-27.11194,-9.011775,-0.1292869,-0.07456851,0.4239752,1.91428,-176,959,1393
2488.023,4.878906,-27.41361,-9.461885,-0.09576807,-0.09800433,0.5038701,1.687379,-156,946,1412
2488.027,4.882812,-27.73443,-9.734824,-0.004788403,-0.1193096,0.5677859,1.465804,-172,916,1440
2488.031,4.886719,-27.88287,-9.797073,0.02394202,-0.1427454,0.6103965,1.244229,-192,953,1402
2488.035,4.890625,-27.99779,-9.691728,0.07661445,-0.1885518,0.6562029,0.9555422,-179,987,1390
2488.039,4.894531,-27.9116,-9.653421,0,-0.2407498,0.6913566,0.7307714,-174,941,1411
2488.043,4.898438,-27.55247,-9.71567,-0.09576807,-0.2961435,0.7307714,0.4932174,-156,976,1398
2488.047,4.902344,-26.91083,-9.749189,-0.2442086,-0.3483415,0.7691209,0.2396845,-181,986,1433
2488.051,4.90625,-25.82386,-9.442731,-0.272939,-0.406931,0.8468852,-0.1171791,-188,995,1382
2488.055,4.910156,-25.08166,-8.8777,-0.2394202,-0.46339,0.9235843,-0.386691,-159,928,1432
2488.059,4.914062,-24.46874,-8.087613,0.05746084,-0.535828,1.008805,-0.6476808,-158,984,1417
2488.062,4.917969,-24.04257,-7.182605,0.4405331,-0.6125271,1.095092,-0.902279,-162,1000,1428
2488.066,4.921875,-23.22376,-6.871359,-0.1053449,-0.6838998,1.188835,-1.220793,-154,1003,1411
2488.07,4.925781,-27.04969,0.6655881,9.308656,-1.051416,1.412541,-1.225054,-137,995,1391
2488.074,4.929688,-10.12268,8.63828,15.22712,-3.232012,1.219728,-1.079113,-156,948,1434
2488.078,4.933594,-3.169923,14.20719,8.992621,-1.807754,0.4346279,-0.5464807,-157,1006,1422
2488.082,4.9375,0.9289502,15.48091,10.3621,-0.9896307,0.1384844,-0.6668555,-177,1009,1433
2488.086,4.941406,10.20888,16.95574,12.89517,-1.737446,0.7435546,-2.156095,-112,969,1404
2488.09,4.945312,19.41698,20.57098,14.9494,-1.302818,0.8756474,-3.079679,-140,938,1398
2488.094,4.949219,25.10081,19.7378,13.40274,-0.2929477,0.6114618,-3.584615,-176,952,1423
2488.098,4.953125,27.7488,13.60864,5.66947,0.4484763,0.8064052,-4.101268,-170,966,1412
2488.102,4.957031,23.784,4.817134,4.156334,0.9821738,2.124137,-5.070659,-161,946,1428
2488.105,4.960938,8.609549,0.1340753,8.092402,0.4857606,2.848517,-5.509548,-125,932,1446
2488.109,4.964844,-13.78581,-1.455675,6.086061,-0.978978,3.070092,-5.369998,-121,992,1412
2488.113,4.96875,-33.97372,4.175488,3.409343,-2.092179,3.145726,-4.587029,-167,961,1405
2488.117,4.972656,-39.97359,14.07312,6.655881,-1.689509,2.937999,-2.98274,-147,930,1389
2488.121,4.976562,-28.95547,10.6542,11.15219,-0.7872304,2.652508,-2.048504,-116,935,1420
2488.125,4.980469,-14.96855,5.588067,15.66766,-0.4378237,2.521481,-1.603223,-151,978,1416
2488.129,4.984375,-5.913678,4.309563,17.88947,-0.5688512,2.37554,-1.412541,-153,953,1405
2488.133,4.988281,-6.277597,6.129156,19.42176,-0.7403588,1.99524,-1.323058,-157,955,1397
2488.137,4.992188,-11.51132,6.856994,16.44817,-1.28897,1.738512,-1.493501,-124,914,1400
2488.141,4.996094,-14.23592,5.023035,13.09628,-1.12705,1.445564,-1.7726,-141,987,1399
2488.145,5,-12.45943,3.572149,11.13783,-0.6103965,0.974717,-1.965413,-131,987,1407
2488.148,5.003906,-3.758897,4.596867,4.34787,-0.3185141,0.6870956,-1.905758,-157,933,1406
2488.152,5.007812,2.145205,5.975927,1.61848,-0.3078614,0.8873653,-1.717206,-114,936,1436
2488.156,5.011719,4.553772,7.144298,0.5506664,-0.4729774,1.194161,-1.586179,-166,965,1449
2488.16,5.015625,3.026271,8.944737,1.335965,-0.7041398,1.513741,-1.515871,-134,937,1426
2488.164,5.019531,-3.055001,11.78426,4.553772,-1.065264,1.823733,-1.434911,-114,932,1418
2488.168,5.023438,-7.513005,11.82257,5.851429,-1.254882,1.896171,-1.364604,-126,910,1395
2488.172,5.027344,-10.10832,9.59596,8.164228,-1.173921,1.840777,-1.297492,-90,972,1447
2488.176,5.03125,-17.77455,11.43471,23.84625,-2.082592,1.539307,-1.525459,-144,977,1420
2488.18,5.035156,-16.99404,11.7699,6.0286,-3.434413,0.7030745,-2.241316,-111,911,1427
2488.184,5.039062,-13.20642,4.22816,4.912902,-1.67353,0.4804343,-2.123072,-102,932,1431
2488.188,5.042969,-7.613561,6.258443,11.0229,-1.114267,0.2588593,-1.50948,-149,1003,1428
2488.191,5.046875,-2.853888,7.393295,10.17057,-1.545699,-0.01917476,-1.010936,-113,930,1408
2488.195,5.050781,-3.318364,1.374272,6.004658,-1.440238,0.2087918,-1.02798,-103,959,1415
2488.199,5.054688,-4.481946,2.585738,7.469909,-1.39017,0.2173139,-1.231446,-140,915,1451
2488.203,5.058594,-4.750096,5.990293,7.642292,-1.345429,0.02237055,-1.286839,-159,940,1417
2488.207,5.0625,-4.970363,7.551312,7.283161,-1.310275,-0.05326322,-1.241033,-125,919,1363
2488.211,5.066406,-5.90889,7.805097,6.914454,-1.260208,-0.06072007,-1.140898,-109,889,1402
2488.215,5.070312,-6.564901,6.876147,7.40766,-1.103614,-0.1139833,-1.029045,-103,923,1400
2488.219,5.074219,-6.962338,5.961562,8.082825,-0.9800433,-0.2151834,-0.9523464,-99,909,1408
2488.223,5.078125,-6.785168,4.903325,7.192182,-0.8564726,-0.3174488,-0.9086706,-154,950,1424
2488.227,5.082031,-5.913678,4.893748,6.852205,-0.7254451,-0.3600594,-0.8607337,-111,936,1385
2488.23,5.085938,-4.46758,4.932055,7.110779,-0.7126619,-0.3685815,-0.7925567,-137,925,1421
2488.234,5.089844,-3.672705,5.027823,6.732495,-0.7318367,-0.3611246,-0.7286409,-119,931,1415
2488.238,5.09375,-3.912126,5.291186,6.938396,-0.6945524,-0.3472762,-0.6721819,-115,926,1389
2488.242,5.097656,-4.429273,5.329493,6.976704,-0.6817692,-0.3270362,-0.6466155,-132,951,1416
2488.246,5.101562,-4.639963,5.674258,7.101202,-0.6657903,-0.2929477,-0.6370281,-89,913,1413
2488.25,5.105469,-4.740519,4.946421,7.240066,-0.5795039,-0.2705772,-0.5699165,-158,970,1439
2488.254,5.109375,-4.563348,4.994305,7.259219,-0.5773733,-0.2876214,-0.5219796,-105,965,1415
2488.258,5.113281,-4.46758,4.58729,7.19697,-0.4942827,-0.257794,-0.4463458,-116,931,1391
2488.262,5.117188,-4.525041,4.386177,7.632715,-0.4687164,-0.2300971,-0.4079963,-121,927,1421
2488.266,5.121094,-4.702212,4.692635,6.971915,-0.4527374,-0.2098571,-0.4250405,-136,963,1432
2488.27,5.125,-4.491522,4.979939,7.350199,-0.3802994,-0.181095,-0.3888215,-133,910,1421
2488.273,5.128906,-4.539406,4.697424,7.517793,-0.3014698,-0.1533981,-0.2407498,-134,937,1402
2488.277,5.132812,-4.141969,3.859453,7.359776,-0.3217099,-0.1214401,-0.2034655,-74,899,1419
2488.281,5.136719,-3.706224,3.763685,7.331045,-0.2886867,-0.1118528,-0.2460761,-120,949,1417
2488.285,5.140625,-3.433285,3.912126,7.694964,-0.2450108,-0.09480853,-0.2364887,-108,951,1444
2488.289,5.144531,-3.572149,4.218583,7.321469,-0.2727077,-0.09693906,-0.201335,-111,966,1367
2488.293,5.148438,-4.22816,4.563348,7.249643,-0.2684466,-0.05965481,-0.2002697,-83,940,1408
2488.297,5.152344,-4.635174,4.802769,7.283161,-0.2641856,-0.06178534,-0.2482066,-123,947,1413
2488.301,5.15625,-4.592079,5.181052,7.04853,-0.2428803,-0.08735168,-0.2631203,-124,945,1394
2488.305,5.160156,-4.510676,5.45878,6.818686,-0.2290319,-0.09800433,-0.2407498,-86,923,1408
2488.309,5.164062,-4.223372,5.348647,6.794744,-0.2545982,-0.08628642,-0.2226403,-126,935,1455
2488.312,5.167969,-4.19943,5.00867,6.852205,-0.2705772,-0.07669904,-0.221575,-121,985,1396
2488.316,5.171875,-5.09965,5.281609,6.885724,-0.2790993,-0.07563377,-0.2673814,-129,919,1398
2488.32,5.175781,-4.175488,4.764461,7.225701,-0.3014698,-0.1203749,-0.3174488,-99,918,1406
2488.324,5.179688,-3.950433,5.401319,6.828263,-0.2492719,-0.1352886,-0.2886867,-94,912,1442
2488.328,5.183594,-4.965574,5.913678,7.139509,-0.2759035,-0.1150486,-0.2961435,-134,941,1434
2488.332,5.1875,-3.691859,5.45878,7.005434,-0.3430151,-0.1416802,-0.3078614,-121,969,1405
2488.336,5.191406,-3.677494,5.784391,6.488286,-0.2833603,-0.1363538,-0.3036004,-89,927,1408
2488.34,5.195312,-4.180276,5.650316,7.04853,-0.3387541,-0.09693906,-0.2993393,-128,927,1441
2488.344,5.199219,-4.448427,4.850653,7.015011,-0.3877563,-0.0660464,-0.3057309,-85,913,1454
