t_native_s,t_opt_s,ax,ay,az,gx,gy,gz,mx,my,mz
2491.746,0.0015625,-9.878476,1.757344,1.024718,0.004261058,-0.008522115,0.01597897,167,-1,173
2491.75,0.00546875,-9.89763,1.766921,0.9816227,0.001065264,-0.006391587,0.0149137,117,161,229
2491.754,0.009375,-9.907206,1.747767,0.9576807,0,0.006391587,0.0181095,241,103,122
2491.758,0.01328125,-9.931148,1.819593,1.015142,0.002130529,-0.01278317,0.01597897,202,65,119
2491.762,0.0171875,-9.935937,1.805228,0.9576807,-0.002130529,0.008522115,0.01704423,224,25,208
2491.766,0.02109375,-9.931148,1.762132,0.9816227,-0.001065264,-0.01065264,0.01597897,158,125,188
2491.77,0.025,-9.873688,1.728614,0.9193734,-0.003195793,0.001065264,0.01917476,120,120,124
2491.773,0.02890625,-9.921572,1.733402,0.9385271,-0.001065264,-0.003195793,0.01597897,259,35,132
2491.777,0.0328125,-9.89763,1.762132,0.9816227,-0.004261058,0,0.01704423,207,38,173
2491.781,0.03671875,-9.916783,1.733402,0.9672575,-0.003195793,0,0.01704423,170,38,207
2491.785,0.040625,-9.878476,1.728614,0.9528923,0,-0.01171791,0.01597897,132,134,129
2491.789,0.04453125,-9.945514,1.766921,0.9385271,-0.001065264,0.005326322,0.01704423,241,95,155
2491.793,0.0484375,-9.92636,1.781286,0.9193734,0.003195793,-0.01065264,0.01597897,246,27,198
2491.797,0.05234375,-9.935937,1.723825,0.890643,0.001065264,0.007456851,0.01704423,191,40,199
2491.801,0.05625,-9.892841,1.771709,0.9576807,0.004261058,-0.01171791,0.01597897,135,110,176
2491.805,0.06015625,-9.859322,1.733402,0.8619126,0.002130529,0,0.0181095,217,107,120
2491.809,0.0640625,-9.849746,1.776498,0.9385271,0.002130529,-0.003195793,0.01704423,255,37,140
2491.812,0.06796875,-9.911995,1.82917,0.8714894,0.002130529,-0.003195793,0.01597897,208,21,194
2491.816,0.071875,-9.911995,1.819593,0.9337386,0,0,0.01384844,165,104,221
2491.82,0.07578125,-9.89763,1.762132,0.9385271,0,-0.01171791,0.0149137,163,126,133
2491.824,0.0796875,-9.888053,1.790863,0.9050082,-0.001065264,0.00958738,0.0149137,208,47,119
2491.828,0.08359375,-9.859322,1.814805,0.9097966,-0.003195793,-0.01065264,0.01384844,229,70,226
2491.832,0.0875,-9.89763,1.805228,0.8714894,-0.005326322,0.00958738,0.0149137,171,43,217
2491.836,0.09140625,-9.892841,1.776498,0.8762778,-0.003195793,-0.00958738,0.01384844,129,97,107
2491.84,0.0953125,-9.945514,1.814805,0.9050082,-0.006391587,-0.001065264,0.01384844,234,126,133
2491.844,0.09921875,-9.878476,1.814805,0.8714894,-0.008522115,-0.003195793,0.01384844,200,99,189
2491.848,0.103125,-9.921572,1.771709,0.9097966,-0.005326322,-0.005326322,0.01278317,128,26,172
2491.852,0.1070312,-9.902418,1.80044,0.8954314,-0.003195793,-0.001065264,0.01384844,146,136,144
2491.855,0.1109375,-9.911995,1.824382,0.8714894,0.001065264,-0.01171791,0.00958738,205,89,164
2491.859,0.1148437,-9.888053,1.742979,0.9433155,0.001065264,0.006391587,0.01171791,216,39,144
2491.863,0.11875,-9.945514,1.73819,0.890643,0.004261058,-0.01278317,0.01065264,140,30,215
2491.867,0.1226562,-9.89763,1.752556,0.9002198,0.003195793,0.005326322,0.01065264,152,139,195
2491.871,0.1265625,-9.868899,1.824382,0.9193734,0.004261058,-0.006391587,0.01065264,166,96,153
2491.875,0.1304687,-9.964667,1.766921,0.890643,0.006391587,-0.003195793,0.01065264,241,21,95
2491.879,0.134375,-9.911995,1.757344,0.890643,0.005326322,-0.005326322,0.00958738,196,22,229
2491.883,0.1382812,-9.873688,1.824382,0.9002198,0.005326322,-0.006391587,0.00958738,133,157,202
2491.887,0.1421875,-9.902418,1.757344,0.914585,0.007456851,-0.002130529,0.00958738,125,83,138
2491.891,0.1460937,-9.911995,1.795651,0.914585,0.006391587,-0.01278317,0.006391587,207,140,143
2491.895,0.15,-9.854534,1.848324,0.9481039,0.004261058,0.003195793,0.00958738,192,19,172
2491.898,0.1539062,-9.902418,1.781286,0.9385271,0.005326322,-0.01171791,0.007456851,139,10,192
2491.902,0.1578125,-9.883264,1.82917,0.914585,0.002130529,0.004261058,0.008522115,176,111,142
2491.906,0.1617187,-9.931148,1.790863,0.9481039,0.004261058,-0.006391587,0.006391587,202,126,111
2491.91,0.165625,-9.902418,1.781286,0.914585,0.003195793,-0.006391587,0.008522115,225,41,107
2491.914,0.1695312,-9.907206,1.795651,0.914585,0.004261058,-0.005326322,0.007456851,116,45,173
2491.918,0.1734375,-9.873688,1.781286,0.8810662,0.004261058,-0.008522115,0.006391587,121,91,181
2491.922,0.1773437,-9.931148,1.80044,0.9481039,0.003195793,0.002130529,0.008522115,134,148,124
2491.926,0.18125,-9.945514,1.810016,0.9289502,0.004261058,-0.0149137,0.005326322,236,61,114
2491.93,0.1851562,-9.921572,1.824382,0.914585,0.004261058,0.003195793,0.006391587,212,63,198
2491.934,0.1890625,-9.955091,1.776498,0.9337386,0.006391587,-0.01597897,0.003195793,113,161,201
2491.938,0.1929687,-9.935937,1.752556,0.9289502,0.005326322,0.002130529,0.005326322,125,141,128
2491.941,0.196875,-9.92636,1.771709,0.890643,0.005326322,-0.006391587,0.005326322,219,97,110
2491.945,0.2007812,-9.931148,1.757344,0.9528923,0.007456851,-0.007456851,0.005326322,220,45,175
2491.949,0.2046875,-9.911995,1.742979,0.9289502,0.007456851,-0.004261058,0.005326322,132,55,200
2491.953,0.2085937,-9.916783,1.771709,0.9337386,0.008522115,-0.008522115,0.003195793,70,91,116
2491.957,0.2125,-9.931148,1.776498,0.9050082,0.007456851,0.004261058,0.003195793,194,103,105
2491.961,0.2164062,-9.945514,1.776498,0.9193734,0.00958738,-0.0149137,0.003195793,236,18,174
2491.965,0.2203125,-9.916783,1.786074,0.914585,0.007456851,0.002130529,0.003195793,141,40,206
2491.969,0.2242187,-9.883264,1.781286,0.9241618,0.008522115,-0.01384844,0.002130529,148,72,210
2491.973,0.228125,-9.902418,1.762132,0.9672575,0.00958738,0.004261058,0.005326322,117,72,152
2491.977,0.2320312,-9.92636,1.757344,0.9624691,0.00958738,-0.004261058,0.003195793,201,59,143
2491.98,0.2359375,-9.902418,1.742979,0.9528923,0.008522115,-0.008522115,0.005326322,222,47,190
2491.984,0.2398437,-9.92636,1.810016,0.9337386,0.01065264,-0.001065264,0.004261058,162,114,187
2491.988,0.24375,-9.935937,1.819593,0.9241618,0.01065264,-0.00958738,0.003195793,154,104,125
2491.992,0.2476562,-9.911995,1.762132,0.8762778,0.008522115,0.003195793,0.004261058,201,49,118
2491.996,0.2515625,-9.868899,1.742979,0.9097966,0.01065264,-0.0149137,0.003195793,212,25,234
2492,0.2554687,-9.888053,1.795651,0.9289502,0.008522115,0.006391587,0.005326322,160,58,182
2492.004,0.259375,-9.911995,1.771709,0.9337386,0.01065264,-0.01278317,0.004261058,137,159,125
2492.008,0.2632812,-9.873688,1.757344,0.9481039,0.00958738,-0.005326322,0.003195793,220,107,116
2492.012,0.2671875,-9.955091,1.771709,0.9528923,0.01065264,-0.002130529,0.003195793,190,74,201
2492.016,0.2710937,-9.907206,1.786074,0.9050082,0.008522115,-0.008522115,0.004261058,125,30,185
2492.02,0.275,-9.878476,1.762132,0.9241618,0.01065264,-0.001065264,0.004261058,104,150,195
2492.023,0.2789062,-9.868899,1.790863,0.914585,0.01065264,-0.01278317,0.002130529,228,107,130
2492.027,0.2828125,-9.878476,1.805228,0.9385271,0.007456851,0.003195793,0.003195793,236,53,110
2492.031,0.2867187,-9.921572,1.704672,0.9097966,0.007456851,-0.01065264,0.004261058,210,69,208
2492.035,0.290625,-9.911995,1.719037,0.9050082,0.004261058,0.003195793,0.008522115,128,95,165
2492.039,0.2945312,-9.89763,1.690306,0.8714894,0.004261058,-0.01278317,0.008522115,151,110,97
2492.043,0.2984375,-9.888053,1.714248,0.8858546,0.006391587,-0.008522115,0.008522115,197,30,109
2492.047,0.3023437,-9.902418,1.661576,0.8858546,0.01171791,-0.002130529,0.005326322,238,46,204
2492.051,0.30625,-9.892841,1.695095,0.9528923,0.01384844,-0.01278317,-0.001065264,146,69,229
2492.055,0.3101562,-9.878476,1.695095,0.9050082,0.01597897,-0.003195793,-0.002130529,92,106,147
2492.059,0.3140625,-9.892841,1.762132,0.9433155,0.01917476,-0.01917476,-0.002130529,215,119,126
2492.062,0.3179687,-9.83538,1.805228,0.9385271,0.0149137,0.001065264,0,183,35,188
2492.066,0.321875,-9.859322,1.853112,0.9768343,0.01597897,-0.01704423,0,137,87,229
2492.07,0.3257812,-9.849746,1.810016,0.9241618,0.008522115,0,0.003195793,149,134,130
2492.074,0.3296875,-9.83538,1.853112,0.9959879,-0.001065264,-0.00958738,0.001065264,258,118,172
2492.078,0.3335937,-9.83538,1.862689,0.9768343,-0.004261058,-0.003195793,0.004261058,242,28,160
2492.082,0.3375,-9.825804,1.833958,0.9097966,-0.01171791,0.006391587,0.006391587,106,19,201
2492.086,0.3414062,-9.916783,1.733402,0.9864111,-0.01278317,-0.002130529,0.008522115,114,149,177
2492.09,0.3453125,-9.974244,1.642422,0.7374141,-0.0149137,0.004261058,0.008522115,131,108,139
2492.094,0.3492187,-9.92636,1.647211,0.9002198,-0.02024002,-0.01171791,0.004261058,219,58,110
2492.098,0.353125,-9.840169,1.651999,1.005565,-0.02450108,0.007456851,0.002130529,180,44,235
2492.102,0.3570312,-9.868899,1.70946,0.9002198,-0.02130529,-0.005326322,-0.002130529,130,147,188
2492.105,0.3609375,-9.935937,1.575385,0.7134721,-0.01597897,0.005326322,-0.008522115,153,104,121
2492.109,0.3648437,-9.883264,1.656788,0.866701,-0.02343582,0.002130529,-0.01384844,234,59,96
2492.113,0.36875,-9.888053,1.584961,0.8475474,-0.01917476,-0.002130529,-0.01704423,204,10,175
2492.117,0.3726562,-9.883264,1.575385,0.9050082,-0.02343582,0.007456851,-0.01171791,104,50,208
2492.121,0.3765625,-9.816227,1.604115,0.9002198,-0.02663161,-0.005326322,-0.003195793,125,123,133
2492.125,0.3804687,-9.873688,1.637634,0.914585,-0.02663161,0.01065264,0.005326322,243,154,91
2492.129,0.384375,-9.907206,1.690306,0.9097966,-0.03834952,-0.002130529,0.01384844,183,46,194
2492.133,0.3882812,-9.864111,1.747767,0.9050082,-0.05219796,0.01597897,0.02237055,171,45,197
2492.137,0.3921875,-9.878476,1.766921,0.8714894,-0.0660464,0.007456851,0.02024002,158,129,191
2492.141,0.3960937,-9.935937,1.848324,0.9002198,-0.0777643,0.02450108,0.01384844,233,83,119
2492.145,0.4,-9.940725,1.953669,0.9241618,-0.08202536,0.02769688,0.006391587,194,60,110
2492.148,0.4039062,-9.888053,1.891419,0.9002198,-0.08628642,0.02237055,0.002130529,212,13,200
2492.152,0.4078125,-9.89763,1.699883,0.9433155,-0.09800433,0.04048005,0.002130529,140,136,184
2492.156,0.4117187,-9.888053,1.714248,1.024718,-0.1075917,0.02556635,0.002130529,124,103,125
2492.16,0.415625,-9.864111,1.666364,1.063026,-0.1118528,0.04687164,0.008522115,220,29,91
2492.164,0.4195312,-9.840169,1.666364,1.043872,-0.08202536,0.02450108,0.008522115,252,18,207
2492.168,0.4234375,-9.89763,1.623269,1.158794,-0.08735168,0.04900216,0.01278317,154,41,208
2492.172,0.4273437,-9.883264,1.61848,1.206678,-0.0809601,0.04367584,0.0149137,151,109,163
2492.176,0.43125,-9.873688,1.685518,1.173159,-0.08948221,0.05539375,0.02663161,175,123,129
2492.18,0.4351562,-9.782708,1.958457,1.302446,-0.1139833,0.05539375,0.04048005,252,54,211
2492.184,0.4390625,-9.825804,1.92015,1.393425,-0.1033307,0.05539375,0.04367584,167,75,159
2492.188,0.4429687,-9.816227,1.776498,1.37906,-0.09800433,0.06391587,0.04261058,130,108,142
2492.191,0.446875,-9.888053,1.584961,1.244985,-0.09480853,0.05326322,0.03728426,179,134,122
2492.195,0.4507812,-9.83538,1.570596,1.316811,-0.1107875,0.0809601,0.03195793,226,43,119
2492.199,0.4546875,-9.830592,1.61848,1.312023,-0.1150486,0.07669904,0.0330232,169,78,215
2492.203,0.4585937,-9.758766,1.699883,1.283292,-0.1150486,0.09480853,0.03728426,144,130,201
2492.207,0.4625,-9.768343,1.656788,1.292869,-0.1097222,0.09161274,0.04154531,149,144,133
2492.211,0.4664062,-9.782708,1.503559,1.335965,-0.1022654,0.1118528,0.04580637,172,5,124
2492.215,0.4703125,-9.811438,1.340753,1.374272,-0.08628642,0.1171791,0.04900216,262,80,177
2492.219,0.4742187,-9.797073,1.307234,1.455675,-0.07030745,0.112918,0.05326322,165,132,220
2492.223,0.478125,-9.840169,1.206678,1.441309,-0.05219796,0.1299623,0.05858954,140,144,114
2492.227,0.4820312,-9.89763,1.158794,1.455675,-0.0330232,0.1235707,0.0660464,216,97,112
2492.23,0.4859375,-9.902418,1.182736,1.493982,-0.01597897,0.1427454,0.07989483,196,28,208
2492.234,0.4898437,-9.945514,1.197101,1.513135,-0.003195793,0.1363538,0.08522115,148,77,160
2492.238,0.49375,-9.907206,1.321599,1.551443,0.001065264,0.1544633,0.09693906,143,130,126
2492.242,0.4976562,-9.883264,1.355118,1.623269,0.01065264,0.1502023,0.09906959,201,94,126
2492.246,0.5015625,-9.840169,1.388637,1.58975,0.007456851,0.1608549,0.1065264,224,66,215
2492.25,0.5054687,-9.768343,1.479617,1.632846,0.002130529,0.1757686,0.1097222,140,66,179
2492.254,0.509375,-9.730036,1.570596,1.623269,-0.007456851,0.1757686,0.1107875,148,127,158
2492.258,0.5132812,-9.682152,1.623269,1.565808,-0.0149137,0.1938781,0.1171791,165,101,137
2492.262,0.5171875,-9.682152,1.604115,1.58975,-0.01917476,0.1949434,0.1235707,213,3,121
2492.266,0.5210937,-9.610325,1.460463,1.632846,-0.03621899,0.221575,0.1374191,191,54,197
2492.27,0.525,-9.667786,1.455675,1.661576,-0.04367584,0.2194445,0.1438107,131,66,213
2492.273,0.5289062,-9.677363,1.388637,1.73819,-0.05219796,0.2428803,0.1544633,139,144,135
2492.277,0.5328125,-9.691728,1.37906,1.781286,-0.05326322,0.2428803,0.1661813,206,52,94
2492.281,0.5367187,-9.739612,1.254562,1.771709,-0.05539375,0.2641856,0.1800297,236,27,185
2492.285,0.540625,-9.763554,1.25935,1.848324,-0.05432849,0.2844256,0.1906823,153,42,201
2492.289,0.5445312,-9.763554,1.240196,1.924938,-0.05219796,0.2950782,0.2034655,123,108,116
2492.293,0.5484375,-9.763554,1.321599,2.054225,-0.05219796,0.3195793,0.2151834,218,140,126
2492.297,0.5523437,-9.801862,1.398214,2.154781,-0.05326322,0.3323625,0.2300971,232,34,202
2492.301,0.55625,-9.763554,1.446098,2.25055,-0.06924219,0.3802994,0.2503371,157,60,211
2492.305,0.5601562,-9.753978,1.398214,2.336741,-0.08415589,0.3920173,0.2652508,153,135,217
2492.309,0.5640625,-9.77792,1.355118,2.379836,-0.1065264,0.4346279,0.2801645,237,80,113
2492.312,0.5679687,-9.763554,1.177947,2.432509,-0.1193096,0.4516721,0.2918825,258,83,96
2492.316,0.571875,-9.734824,0.8044518,2.533065,-0.1246359,0.4878911,0.3014698,191,40,204
2492.32,0.5757812,-9.71567,0.4740519,2.647987,-0.1161138,0.5091964,0.3089267,131,98,212
2492.324,0.5796875,-9.677363,0.1723825,2.700659,-0.09267801,0.5262406,0.3185141,114,97,139
2492.328,0.5835937,-9.59596,-0.1101333,2.676717,-0.06391587,0.5475459,0.3323625,200,54,116
2492.332,0.5875,-9.586383,-0.4979939,2.533065,0.001065264,0.5688512,0.3536678,206,36,168
2492.336,0.5914062,-9.59596,-0.7613561,2.537854,0.06391587,0.5986786,0.3739078,129,56,163
2492.34,0.5953125,-9.639056,-1.000776,2.523489,0.1438107,0.6103965,0.3952131,128,95,137
2492.344,0.5992187,-9.591172,-1.312023,2.494758,0.2279666,0.6455502,0.4207795,199,121,141
2492.348,0.603125,-9.538499,-1.594538,2.485181,0.3217099,0.6625945,0.4474111,232,20,193
2492.352,0.6070312,-9.461885,-2.03986,2.604891,0.4463458,0.716923,0.4932174,145,29,186
2492.355,0.6109375,-9.44752,-2.331952,2.667141,0.5411543,0.7552725,0.5294364,135,116,135
2492.359,0.6148437,-9.466673,-2.604891,2.719813,0.6434197,0.7872304,0.5624596,201,139,105
2492.363,0.61875,-9.56723,-2.767697,2.777274,0.7467504,0.8213189,0.5954828,206,44,127
2492.367,0.6226562,-9.624691,-2.796428,2.657564,0.8894958,0.8575379,0.6317018,214,27,210
2492.371,0.6265625,-9.658209,-2.829946,2.715025,1.003479,0.8831042,0.6615292,168,145,198
2492.375,0.6304687,-9.710882,-2.8491,2.715025,1.122789,0.9129316,0.6934871,149,116,131
2492.379,0.634375,-9.682152,-2.964022,2.604891,1.241033,0.9310411,0.721184,236,51,128
2492.383,0.6382812,-9.68694,-3.093309,2.442086,1.398692,0.9768475,0.7616641,218,60,192
2492.387,0.6421875,-9.696517,-3.136404,2.212242,1.512675,0.999218,0.8010789,133,168,169
2492.391,0.6460937,-9.701305,-3.20823,2.054225,1.619202,1.024784,0.8415589,163,121,149
2492.395,0.65,-9.768343,-3.289633,1.80044,1.726794,1.042894,0.8799084,217,128,134
2492.398,0.6539062,-9.859322,-3.213019,1.584961,1.841842,1.057808,0.9182579,205,21,193
2492.402,0.6578125,-9.911995,-3.136404,1.570596,2.010154,1.06633,0.9629991,135,54,236
2492.406,0.6617187,-9.955091,-2.906561,1.656788,2.141182,1.101483,0.999218,162,138,137
2492.41,0.665625,-9.974244,-2.633622,1.805228,2.271144,1.115332,1.026915,209,97,142
2492.414,0.6695312,-9.916783,-2.221819,1.915361,2.364887,1.16966,1.057808,211,39,174
2492.418,0.6734375,-10.15142,-1.728614,1.647211,2.451173,1.234641,1.092961,130,57,221
2492.422,0.6773437,-10.11311,-0.818817,1.881843,2.472479,1.264469,1.118528,118,136,229
2492.426,0.68125,-10.16578,0.03830723,2.006341,2.463957,1.313471,1.146225,118,137,129
2492.43,0.6851562,-10.31422,1.067814,1.723825,2.413889,1.360343,1.165399,198,39,146
2492.434,0.6890625,-10.817,1.905785,0.6081272,2.31482,1.373126,1.182444,245,69,199
2492.438,0.6929687,-11.35809,3.184288,0.2442086,2.143312,1.391235,1.184574,130,133,229
2492.441,0.696875,-11.81778,4.304775,0.4022259,2.036786,1.389105,1.177117,137,113,143
2492.445,0.7007812,-12.32056,5.415684,0.7230489,1.951564,1.381648,1.16753,188,162,150
2492.449,0.7046875,-12.80419,6.157887,0.818817,1.856756,1.39017,1.155812,200,61,204
2492.453,0.7085937,-13.50809,6.488286,0.344765,1.690575,1.393366,1.143029,96,111,215
2492.457,0.7125,-14.04439,6.071695,0.03830723,1.577657,1.395496,1.136637,164,151,131
2492.461,0.7164062,-14.44661,5.554548,-0.01915361,1.494566,1.400823,1.145159,213,134,149
2492.465,0.7203125,-14.63336,4.946421,-0.4118027,1.438107,1.386974,1.162203,196,65,223
2492.469,0.7242187,-14.81053,4.070143,-0.7613561,1.352886,1.395496,1.192031,157,67,224
2492.473,0.728125,-14.83926,3.624821,-0.9193734,1.290035,1.392301,1.198422,156,145,207
2492.477,0.7320312,-14.81053,3.342306,-1.072602,1.251686,1.407214,1.1899,122,169,184
2492.48,0.7359375,-14.72913,3.150769,-1.412579,1.22825,1.397627,1.159008,224,93,137
2492.484,0.7398437,-14.39873,3.08852,-1.58975,1.212271,1.421063,1.10681,195,63,245
2492.488,0.74375,-14.19762,2.99754,-1.915361,1.180313,1.42852,1.014132,154,160,197
2492.492,0.7476562,-13.95341,3.035848,-2.183512,1.145159,1.458347,0.942759,159,115,185
2492.496,0.7515625,-13.69005,3.093309,-2.552219,1.097222,1.460478,0.8724516,193,24,124
2492.5,0.7554687,-13.41232,3.169923,-3.016694,1.031176,1.47113,0.8085357,230,51,225
2492.504,0.759375,-12.9239,3.246537,-3.351882,0.9246495,1.479652,0.7329019,107,78,208
2492.508,0.7632812,-12.45943,3.44765,-3.514688,0.8362326,1.481783,0.6838998,128,152,162
2492.512,0.7671875,-12.03805,3.849876,-3.715801,0.7488809,1.465804,0.6348976,216,193,152
2492.516,0.7710937,-11.55921,4.223372,-3.782839,0.6530071,1.475391,0.5933523,220,42,224
2492.52,0.775,-11.14261,4.845864,-3.806781,0.5283712,1.44876,0.5528722,136,84,243
2492.523,0.7789062,-10.94629,5.391742,-3.811569,0.427171,1.429585,0.5241101,129,135,234
2492.527,0.7828125,-10.66377,5.889736,-3.912126,0.3312972,1.394431,0.495348,195,155,140
2492.531,0.7867187,-10.49618,6.483498,-3.907337,0.2428803,1.376322,0.4729774,203,102,183
2492.535,0.790625,-10.30943,7.005434,-3.892972,0.1576591,1.32945,0.46339,218,94,219
2492.539,0.7945312,-9.950302,7.460332,-3.888183,0.04474111,1.292166,0.4783037,158,161,204
2492.543,0.7984375,-9.758766,7.627926,-3.849876,-0.03728426,1.237837,0.4942827,138,185,152
2492.547,0.8023437,-9.634267,7.546524,-3.801992,-0.1384844,1.198422,0.5177185,212,115,127
2492.551,0.80625,-9.600749,7.398083,-3.873818,-0.2545982,1.134507,0.5464807,192,88,224
2492.555,0.8101562,-9.44752,7.16824,-3.86903,-0.4111921,1.051416,0.5858954,155,150,229
2492.559,0.8140625,-9.26556,6.967127,-3.792415,-0.5187838,1.006675,0.6210492,180,114,158
2492.562,0.8179687,-9.112332,6.775591,-3.806781,-0.6146576,0.9438243,0.6530071,226,181,147
2492.566,0.821875,-8.930372,6.651092,-3.782839,-0.6945524,0.8799084,0.680704,226,101,227
2492.57,0.8257812,-8.748413,6.210559,-3.754108,-0.7925567,0.7957525,0.7020093,139,124,271
2492.574,0.8296875,-8.604761,5.554548,-3.667917,-0.8607337,0.7510114,0.7020093,179,168,187
2492.578,0.8335937,-8.552088,4.88896,-3.643975,-0.9171927,0.6913566,0.6860303,194,147,152
2492.582,0.8375,-8.494627,4.276044,-3.576937,-0.9661948,0.6338323,0.6572682,230,90,197
2492.586,0.8414062,-8.394071,3.600879,-3.394978,-0.999218,0.5858954,0.6199839,174,118,207
2492.59,0.8453125,-8.2169,2.796428,-3.064578,-1.02585,0.5187838,0.5571333,104,167,177
2492.594,0.8492187,-8.173804,2.145205,-2.801216,-1.02585,0.4495416,0.495348,141,184,172
2492.598,0.853125,-8.044518,1.575385,-2.628833,-1.009871,0.4016047,0.4186489,210,102,153
2492.602,0.8570312,-7.972692,1.029507,-2.552219,-0.9811085,0.334493,0.3259709,201,107,204
2492.605,0.8609375,-7.85777,0.6512229,-2.60968,-0.9076053,0.2407498,0.1949434,122,158,184
2492.609,0.8648437,-7.76679,0.6033388,-2.667141,-0.8309063,0.1480718,0.1012001,162,159,148
2492.613,0.86875,-7.632715,0.6991069,-2.614468,-0.7499462,0.08309063,0.01384844,233,72,144
2492.617,0.8726562,-7.469909,0.6991069,-2.418144,-0.6689861,0.008522115,-0.06711166,211,126,241
2492.621,0.8765625,-7.254431,0.56982,-2.341529,-0.6040049,-0.05645902,-0.1502023,123,74,235
2492.625,0.8804687,-7.163451,0.272939,-2.207454,-0.5400891,-0.1427454,-0.2631203,153,143,162
2492.629,0.884375,-7.062895,0.09097966,-2.140416,-0.5102617,-0.2183792,-0.3419499,209,150,184
2492.633,0.8882812,-7.000646,0.03351882,-2.126051,-0.4836301,-0.2801645,-0.4090615,237,75,266
2492.637,0.8921875,-6.833052,0.1436521,-2.116474,-0.4548679,-0.3749731,-0.4708469,87,86,259
2492.641,0.8960937,-6.761225,0.3974375,-2.121263,-0.4079963,-0.4612595,-0.5432849,168,143,225
2492.645,0.9,-6.703765,0.5793968,-2.087744,-0.3717773,-0.5273059,-0.5976133,196,173,170
2492.648,0.9039062,-6.742072,0.794875,-2.15957,-0.3398194,-0.6029397,-0.6551376,184,132,157
2492.652,0.9078125,-6.852205,1.024718,-2.164358,-0.3238404,-0.6700513,-0.7179882,226,91,222
2492.656,0.9117187,-6.943185,1.37906,-2.226608,-0.314253,-0.7563377,-0.8085357,107,176,209
2492.66,0.915625,-7.010222,1.599327,-2.284068,-0.3014698,-0.8181231,-0.8735168,163,216,142
2492.664,0.9195312,-7.072472,1.762132,-2.293645,-0.2972088,-0.882039,-0.938498,179,71,137
2492.668,0.9234375,-7.177817,1.939303,-2.27928,-0.3057309,-0.9353022,-0.999218,238,54,191
2492.672,0.9273437,-7.225701,1.977611,-2.317587,-0.3206446,-0.9938917,-1.054612,123,97,229
2492.676,0.93125,-7.201759,2.035071,-2.355894,-0.3547331,-1.065264,-1.128115,125,122,177
2492.68,0.9351562,-7.273585,2.116474,-2.42772,-0.3845605,-1.123854,-1.182444,240,155,152
2492.684,0.9390625,-7.307103,2.140416,-2.437297,-0.4165184,-1.166465,-1.232511,213,93,235
2492.688,0.9429687,-7.350199,2.1883,-2.528277,-0.4484763,-1.212271,-1.282578,155,54,224
2492.691,0.946875,-7.364564,2.274492,-2.590526,-0.4878911,-1.279383,-1.344364,142,119,223
2492.695,0.9507812,-7.422025,2.274492,-2.619257,-0.519849,-1.30921,-1.39017,222,164,174
2492.699,0.9546875,-7.474698,2.231396,-2.595315,-0.5571333,-1.352886,-1.433846,210,85,146
2492.703,0.9585937,-7.503428,2.240973,-2.624045,-0.5933523,-1.386974,-1.478587,202,81,219
2492.707,0.9625,-7.671022,2.193089,-2.537854,-0.6338323,-1.441303,-1.533981,147,150,219
2492.711,0.9664062,-7.73806,2.135628,-2.537854,-0.664725,-1.472195,-1.578722,154,146,178
2492.715,0.9703125,-7.762002,2.082955,-2.533065,-0.6881608,-1.506284,-1.619202,227,65,167
2492.719,0.9742187,-7.819463,2.015918,-2.466028,-0.7094661,-1.545699,-1.659682,191,78,241
2492.723,0.978125,-7.896077,1.94888,-2.432509,-0.7275756,-1.57233,-1.699097,130,49,233
2492.727,0.9820312,-8.030152,1.872266,-2.5187,-0.7424893,-1.619202,-1.747034,179,171,131
2492.73,0.9859375,-8.12592,1.8579,-2.513912,-0.7478156,-1.655421,-1.782187,202,122,143
2492.734,0.9898437,-8.197746,1.833958,-2.446874,-0.7499462,-1.687379,-1.815211,195,52,246
2492.738,0.99375,-8.303091,1.73819,-2.470816,-0.7552725,-1.715076,-1.846103,158,89,185
2492.742,0.9976562,-8.422801,1.695095,-2.509123,-0.7637946,-1.751295,-1.886583,154,133,184
2492.746,1.001562,-8.561665,1.728614,-2.384625,-0.7680557,-1.782187,-1.915345,251,134,180
2492.75,1.005469,-8.63828,1.70946,-2.360683,-0.7723167,-1.798166,-1.939847,247,85,208
2492.754,1.009375,-8.75799,1.762132,-2.331952,-0.7723167,-1.820537,-1.961152,138,50,230
2492.758,1.013281,-8.820239,1.776498,-2.288857,-0.7712515,-1.842907,-1.978196,138,119,252
2492.762,1.017187,-8.882488,1.810016,-2.217031,-0.7595335,-1.855691,-1.99311,113,172,123
2492.766,1.021094,-8.987833,1.867477,-2.149993,-0.7563377,-1.880192,-2.005893,220,38,160
2492.77,1.025,-9.112332,1.8579,-2.059013,-0.7616641,-1.889779,-2.014415,249,35,224
2492.773,1.028906,-9.232042,1.795651,-1.939303,-0.7755125,-1.900432,-2.030394,227,65,215
2492.777,1.032812,-9.370905,1.896208,-1.915361,-0.7893609,-1.892975,-2.038916,176,110,162
2492.781,1.036719,-9.47625,1.94888,-1.843535,-0.8074704,-1.913215,-2.054895,224,26,128
2492.785,1.040625,-9.605537,2.030283,-1.695095,-0.8319715,-1.898301,-2.067678,259,29,221
2492.789,1.044531,-9.691728,2.183512,-1.604115,-0.8479505,-1.896171,-2.075135,116,61,192
2492.793,1.048437,-9.739612,2.360683,-1.355118,-0.8511463,-1.875931,-2.079396,141,112,161
2492.797,1.052344,-9.801862,2.499547,-1.254562,-0.8479505,-1.872735,-2.077266,226,151,129
2492.801,1.05625,-9.859322,2.561796,-1.091756,-0.8468852,-1.848234,-2.067678,231,63,205
2492.805,1.060156,-9.979033,2.580949,-0.9624691,-0.8404936,-1.848234,-2.060221,166,43,217
2492.809,1.064062,-10.05565,2.5187,-0.8092402,-0.8426242,-1.823733,-2.049569,154,119,225
2492.812,1.067969,-10.12747,2.542642,-0.6464344,-0.8447547,-1.81308,-2.036786,191,152,169
2492.816,1.071875,-10.32859,2.408567,-0.4788403,-0.8564726,-1.781122,-2.026133,239,30,155
2492.82,1.075781,-10.43872,2.336741,-0.4357447,-0.8713863,-1.778992,-2.017611,229,53,242
2492.824,1.079687,-10.54885,2.169147,-0.296881,-0.8916263,-1.745968,-2.011219,154,135,201
2492.828,1.083594,-10.64941,2.001553,-0.225055,-0.9097358,-1.722533,-2.002697,170,134,122
2492.832,1.0875,-10.70208,1.94888,-0.1244985,-0.9171927,-1.71401,-2.002697,206,40,168
2492.836,1.091406,-10.78827,1.877054,-0.05746084,-0.9203885,-1.692705,-2.002697,230,33,228
2492.84,1.095312,-10.80264,1.762132,0.004788403,-0.9193232,-1.684183,-2.008023,185,33,176
2492.844,1.099219,-10.81221,1.685518,0.1101333,-0.9129316,-1.650095,-2.004828,168,98,131
2492.848,1.103125,-10.76433,1.661576,0.2106897,-0.9012137,-1.650095,-2.003762,214,93,152
2492.852,1.107031,-10.7356,1.628057,0.248997,-0.8894958,-1.620267,-1.988849,245,18,231
2492.855,1.110937,-10.70208,1.604115,0.3112462,-0.8777779,-1.619202,-1.97287,125,47,193
2492.859,1.114844,-10.57279,1.49877,0.3160346,-0.8681905,-1.584048,-1.944108,188,98,136
2492.863,1.11875,-10.42914,1.283292,0.3926491,-0.8532768,-1.567004,-1.897236,250,66,140
2492.867,1.122656,-10.34774,1.067814,0.5315128,-0.8415589,-1.543568,-1.852495,212,18,115
2492.871,1.126562,-10.24239,0.866701,0.5554548,-0.8287757,-1.518002,-1.801362,173,-13,194
2492.875,1.130469,-10.25197,0.7230489,0.593762,-0.8106662,-1.494566,-1.744903,155,91,187
2492.879,1.134375,-10.20888,0.6655881,0.8619126,-0.7872304,-1.459412,-1.663943,171,67,157
2492.883,1.138281,-10.09874,0.5602432,0.9193734,-0.7627293,-1.432781,-1.601092,238,47,151
2492.887,1.142187,-10.06044,0.5985504,1.134852,-0.7403588,-1.399757,-1.541438,236,32,216
2492.891,1.146094,-9.935937,0.617704,1.192312,-0.716923,-1.368865,-1.474326,219,89,222
2492.895,1.15,-9.763554,0.6320692,1.244985,-0.6881608,-1.312406,-1.383779,193,144,151
2492.898,1.153906,-9.677363,0.6464344,1.307234,-0.6753777,-1.269795,-1.313471,245,96,133
2492.902,1.157812,-9.648633,0.7852981,1.383849,-0.6551376,-1.231446,-1.239968,252,8,200
2492.906,1.161719,-9.47625,0.9050082,1.493982,-0.6338323,-1.178182,-1.162203,172,24,210
2492.91,1.165625,-9.366117,0.9816227,1.484405,-0.6178534,-1.130246,-1.085504,187,80,140
2492.914,1.169531,-9.188946,1.058237,1.532289,-0.6157228,-1.04822,-0.9768475,253,76,114
2492.918,1.173437,-9.179369,0.9959879,1.484405,-0.6146576,-1.001349,-0.902279,253,20,201
2492.922,1.177344,-9.107543,1.11091,1.532289,-0.6125271,-0.9331716,-0.8266452,163,9,213
2492.926,1.18125,-9.035717,1.335965,1.580173,-0.6135923,-0.8756474,-0.7552725,138,63,182
2492.93,1.185156,-8.973468,1.613692,1.608904,-0.6317018,-0.777643,-0.6540724,149,109,116
2492.934,1.189062,-9.002198,1.80044,1.561019,-0.6625945,-0.7084008,-0.5795039,288,48,132
2492.938,1.192969,-9.050082,1.910573,1.556231,-0.7094661,-0.6199839,-0.5060006,273,19,192
2492.941,1.196875,-9.08839,1.991976,1.613692,-0.7552725,-0.5528722,-0.4324974,137,77,191
2492.945,1.200781,-9.150639,1.900996,1.714248,-0.7957525,-0.4612595,-0.3600594,188,56,115
2492.949,1.204687,-9.184158,1.656788,1.94888,-0.8223841,-0.3653857,-0.2748382,218,4,143
2492.953,1.208594,-9.169792,1.403002,2.078167,-0.8245147,-0.298274,-0.2119876,306,-12,175
2492.957,1.2125,-9.078813,1.197101,2.284068,-0.8106662,-0.2269013,-0.149137,162,-15,168
2492.961,1.216406,-9.021352,1.067814,2.322376,-0.7904262,-0.1619202,-0.0809601,153,70,117
2492.965,1.220312,-8.853758,0.8619126,2.355894,-0.7552725,-0.0628506,0.0181095,231,66,120
2492.969,1.224219,-8.772355,0.7374141,2.384625,-0.7318367,-0.0149137,0.09480853,254,-12,201
2492.973,1.228125,-8.748413,0.7086837,2.312799,-0.7126619,0.06924219,0.1800297,177,4,189
2492.977,1.232031,-8.724471,0.7709329,2.413355,-0.7030745,0.1235707,0.2748382,170,70,189
2492.98,1.235937,-8.604761,0.9816227,2.327164,-0.6764429,0.2237055,0.4111921,224,72,189
2492.984,1.239844,-8.552088,1.11091,2.327164,-0.6508766,0.2631203,0.5166533,244,7,107
2492.988,1.24375,-8.470685,1.335965,2.293645,-0.6263755,0.3472762,0.6306365,254,27,199
2492.992,1.247656,-8.389283,1.522712,2.240973,-0.6029397,0.3973436,0.7424893,158,108,164
2492.996,1.251562,-8.33661,1.867477,2.020706,-0.592287,0.4676511,0.8436894,219,78,110
2493,1.255469,-8.418013,2.087744,1.58975,-0.5752428,0.5177185,0.9736517,233,14,111
2493.004,1.259375,-8.346187,2.221819,1.431733,-0.5528722,0.5507417,1.064199,235,3,208
2493.008,1.263281,-8.432378,2.240973,1.04866,-0.515588,0.5933523,1.14942,134,-10,189
2493.012,1.267187,-8.63828,1.972822,1.192312,-0.479369,0.6008091,1.220793,191,118,103
2493.016,1.271094,-9.150639,1.383849,1.010353,-0.4122573,0.6157228,1.2911,236,120,151
2493.02,1.275,-9.524134,0.6512229,1.024718,-0.3728426,0.5912218,1.318797,213,13,207
2493.023,1.278906,-10.07959,-0.3016694,0.9433155,-0.3163835,0.5677859,1.324124,159,6,214
2493.027,1.282812,-10.71645,-1.503559,1.211466,-0.2492719,0.5091964,1.2911,191,131,133
2493.031,1.286719,-11.4778,-3.1795,1.388637,-0.1555286,0.4165184,1.185639,266,123,160
2493.035,1.290625,-11.87045,-4.362235,1.455675,-0.08309063,0.3632552,1.082309,216,-7,120
2493.039,1.294531,-12.50252,-5.396531,1.742979,0.0181095,0.2897519,0.9576727,205,-21,234
2493.043,1.298437,-12.77546,-5.947197,1.838747,0.1171791,0.2290319,0.8351673,220,102,226
2493.047,1.302344,-12.95742,-5.995081,1.637634,0.2141182,0.1502023,0.7243798,120,110,122
2493.051,1.30625,-13.07713,-5.204994,1.235408,0.3046656,0.1161138,0.6231797,261,13,119
2493.055,1.310156,-13.05319,-4.242525,1.091756,0.3334278,0.08309063,0.5901565,219,18,217
2493.059,1.314062,-12.70842,-3.155558,0.617704,0.3185141,0.1214401,0.6061355,142,73,215
2493.062,1.317969,-12.3445,-2.149993,0.2585738,0.2790993,0.1384844,0.6593987,174,80,128
2493.066,1.321875,-11.88961,-0.7422025,-0.2202666,0.2066613,0.2226403,0.7797736,246,70,122
2493.07,1.325781,-11.69328,0.4453215,-0.3926491,0.1704423,0.2599245,0.8756474,206,35,210
2493.074,1.329687,-11.50653,1.604115,-0.4884171,0.1331581,0.3110572,0.9523464,173,28,201
2493.078,1.333594,-11.61188,2.738967,-0.5410896,0.09374327,0.3408846,0.9906959,191,99,108
2493.082,1.3375,-11.77468,3.86903,-0.5410896,-0.007456851,0.3888215,0.999218,210,99,149
2493.086,1.341406,-12.06199,5.137957,-0.6224924,-0.1203749,0.4250405,0.994957,258,-7,198
2493.09,1.345312,-12.22958,5.870582,-0.7230489,-0.2599245,0.4484763,1.000283,166,33,191
2493.094,1.349219,-12.37802,6.339846,-1.005565,-0.4207795,0.479369,1.017328,161,104,206
2493.098,1.353125,-12.28704,6.727707,-1.297657,-0.5912218,0.4836301,1.047155,209,72,125
2493.102,1.357031,-12.04762,6.751649,-1.671153,-0.8000136,0.4857606,1.0887,198,15,140
2493.105,1.360937,-11.72201,6.426037,-1.824382,-0.9523464,0.4814995,1.103614,271,-23,185
2493.109,1.364844,-11.45865,5.913678,-1.781286,-1.082309,0.4729774,1.107875,151,94,210
2493.113,1.36875,-11.23838,5.109226,-1.685518,-1.196292,0.4442153,1.098288,163,96,127
2493.117,1.372656,-10.93192,3.677494,-1.508347,-1.303884,0.3973436,1.059938,223,4,131
2493.121,1.376562,-10.63504,2.547431,-1.23062,-1.335842,0.3515373,1.018393,204,41,175
2493.125,1.380469,-10.39084,1.493982,-0.8762778,-1.327319,0.3110572,0.9640643,196,25,249
2493.129,1.384375,-10.22324,0.641646,-0.4979939,-1.274056,0.2631203,0.9044095,183,92,136
2493.133,1.388281,-9.945514,-0.05267244,-0.1675941,-1.168595,0.2247708,0.8372978,233,129,118
2493.137,1.392187,-9.792285,-0.7278373,0.1101333,-0.9544769,0.1672465,0.7542072,211,11,203
2493.141,1.396094,-9.77792,-0.9720459,0.2346318,-0.7424893,0.1310275,0.7073356,181,-3,204
2493.145,1.4,-9.787496,-1.106121,0.3399766,-0.5006743,0.09267801,0.6764429,145,90,203
2493.148,1.403906,-9.844957,-1.039084,1.23062,-0.2354234,0.06072007,0.6764429,258,100,135
2493.152,1.407812,-9.950302,-1.551443,0.8858546,0.112918,0.03621899,0.6988135,230,20,164
2493.156,1.411719,-9.974244,-1.517924,0.6703765,0.3888215,0.01597897,0.7329019,242,35,212
2493.16,1.415625,-9.730036,-1.173159,0.5985504,0.6551376,0.007456851,0.7968178,165,101,203
2493.164,1.419531,-9.418789,-0.5027823,0.4644751,0.882039,-0.01704423,0.8586031,163,121,115
2493.168,1.423437,-9.054871,0.1388637,0.1340753,1.143029,-0.01917476,0.9203885,220,46,134
2493.172,1.427344,-8.872911,0.3160346,-0.05267244,1.281513,-0.005326322,0.9193232,201,30,181
2493.176,1.43125,-8.796297,0.4884171,0.09097966,1.353951,0.00958738,0.8926916,159,32,187
2493.18,1.435156,-8.69574,0.842759,0.2059013,1.370995,0.03089267,0.8564726,157,111,141
2493.184,1.439062,-8.75799,1.369483,0.3303998,1.365669,0.0479369,0.8106662,243,101,176
2493.188,1.442969,-8.978256,2.106897,0.8331822,1.313471,0.07030745,0.7424893,245,-19,221
2493.191,1.446875,-9.275137,2.748544,1.16837,1.24849,0.0958738,0.700944,176,13,206
2493.195,1.450781,-9.490615,3.246537,1.426944,1.164334,0.08948221,0.664725,138,85,109
2493.199,1.454687,-9.749189,3.768473,1.628057,1.061003,0.1139833,0.6455502,195,113,112
2493.203,1.458594,-10.09395,4.496311,1.833958,0.8841695,0.1001349,0.644485,222,27,175
2493.207,1.4625,-10.31422,5.00867,1.915361,0.721184,0.09480853,0.6615292,178,18,240
2493.211,1.466406,-10.40999,5.420473,1.939303,0.5422196,0.08841695,0.6838998,177,69,196
2493.215,1.470312,-10.4866,5.60722,1.991976,0.350472,0.08735168,0.7062703,170,89,138
2493.219,1.474219,-10.48181,5.621585,1.853112,0.09161274,0.08202536,0.7318367,229,37,153
2493.223,1.478125,-10.46266,5.549759,1.766921,-0.09161274,0.0777643,0.741424,221,51,180
2493.227,1.482031,-10.35253,5.243302,1.733402,-0.2641856,0.07456851,0.7456851,199,87,195
2493.23,1.485937,-10.25197,4.836287,1.795651,-0.4218447,0.08309063,0.7424893,146,54,133
2493.234,1.489844,-10.18972,4.266467,1.833958,-0.5550028,0.07882957,0.7307714,230,89,167
2493.238,1.49375,-10.1179,3.452439,1.805228,-0.6860303,0.08309063,0.7115966,220,33,190
2493.242,1.497656,-10.04607,2.839523,1.853112,-0.7456851,0.09161274,0.6977482,160,19,232
2493.246,1.501562,-9.983821,2.212242,1.819593,-0.7712515,0.08628642,0.6860303,153,145,161
2493.25,1.505469,-9.959879,1.556231,1.80044,-0.7669904,0.09693906,0.6785734,219,92,125
2493.254,1.509375,-9.945514,0.6320692,1.671153,-0.7041398,0.08309063,0.664725,229,33,214
2493.258,1.513281,-9.878476,-0.004788403,1.517924,-0.6178534,0.08628642,0.6593987,165,30,240
2493.262,1.517187,-9.801862,-0.5410896,1.426944,-0.4974785,0.07137272,0.6551376,144,161,168
2493.266,1.521094,-9.634267,-0.9672575,1.412579,-0.3568636,0.06498113,0.6572682,236,90,141
2493.27,1.525,-9.504981,-1.268927,1.422156,-0.1949434,0.05752428,0.6583334,250,53,139
2493.273,1.528906,-9.423578,-1.417367,1.383849,0.04367584,0.04154531,0.6583334,205,51,204
2493.277,1.532812,-9.279926,-1.426944,1.312023,0.2279666,0.04474111,0.6615292,161,109,209
2493.281,1.536719,-9.155427,-1.292869,1.321599,0.4058658,0.03728426,0.6657903,170,125,129
2493.285,1.540625,-9.035717,-1.082179,1.307234,0.5613944,0.04048005,0.6668555,244,-19,130
2493.289,1.544531,-9.006987,-0.5793968,1.340753,0.737163,0.0479369,0.6711166,202,2,191
2493.293,1.548437,-9.002198,-0.07661445,1.331176,0.8436894,0.05539375,0.6700513,126,21,230
2493.297,1.552344,-8.949526,0.5602432,1.326388,0.9246495,0.0628506,0.6700513,162,107,182
2493.301,1.55625,-8.949526,1.206678,1.335965,0.9736517,0.0777643,0.6711166,207,115,129
2493.305,1.560156,-8.992621,2.06859,1.369483,0.9928265,0.09906959,0.6775082,210,9,219
2493.309,1.564062,-9.203311,2.63841,1.393425,0.978978,0.1278317,0.6785734,100,13,197
2493.312,1.567969,-9.428366,3.198653,1.441309,0.942759,0.1331581,0.680704,141,107,140
2493.316,1.571875,-9.605537,3.65834,1.426944,0.882039,0.1544633,0.6785734,241,101,149
2493.32,1.575781,-9.969456,3.950433,1.455675,0.8053399,0.1533981,0.6753777,219,-4,138
2493.324,1.579687,-10.18972,4.132392,1.493982,0.6913566,0.1661813,0.6625945,220,33,226
2493.328,1.583594,-10.35732,4.156334,1.599327,0.6040049,0.1587244,0.6530071,126,124,224
2493.332,1.5875,-10.49139,4.141969,1.637634,0.5113269,0.1640507,0.6434197,130,104,131
2493.336,1.591406,-10.54885,3.993528,1.671153,0.4186489,0.1470065,0.6402239,199,18,153
2493.34,1.595312,-10.42914,3.648763,1.786074,0.3089267,0.1544633,0.6295713,221,34,188
2493.344,1.599219,-10.30464,3.356671,1.877054,0.2492719,0.1384844,0.6231797,128,80,207
2493.348,1.603125,-10.09395,3.107674,1.915361,0.205596,0.1470065,0.6231797,131,113,129
2493.352,1.607031,-9.888053,2.892196,1.881843,0.1800297,0.1310275,0.6199839,246,81,127
2493.355,1.610937,-9.56723,2.691083,1.757344,0.1629855,0.1352886,0.6167881,228,47,200
2493.359,1.614844,-9.394847,2.590526,1.675941,0.1619202,0.1416802,0.6103965,139,39,220
2493.363,1.61875,-9.232042,2.446874,1.661576,0.1715076,0.1406149,0.6072007,126,94,140
2493.367,1.622656,-9.222465,2.336741,1.527501,0.1885518,0.149137,0.5997439,207,137,143
2493.371,1.626562,-9.193734,2.202666,1.412579,0.2087918,0.1555286,0.5965481,223,63,179
2493.375,1.630469,-9.203311,1.996764,1.158794,0.2471413,0.1565939,0.5933523,194,61,216
2493.379,1.634375,-9.217676,1.963245,0.9385271,0.2812298,0.1523328,0.5933523,152,98,209
2493.383,1.638281,-9.255984,1.991976,0.7469909,0.3121225,0.1565939,0.5933523,122,74,156
2493.387,1.642187,-9.294291,2.020706,0.7038953,0.3376888,0.1619202,0.5976133,235,38,138
2493.391,1.646094,-9.390059,2.03986,0.5267244,0.3792341,0.1661813,0.6008091,200,22,264
2493.395,1.65,-9.44752,2.063802,0.4309563,0.406931,0.1683118,0.6040049,154,126,250
2493.398,1.653906,-9.44752,2.207454,0.3926491,0.4346279,0.1747034,0.6072007,168,81,124
2493.402,1.657812,-9.509769,2.264915,0.3303998,0.4474111,0.1736381,0.6114618,215,94,129
2493.406,1.661719,-9.605537,2.394202,0.3639187,0.4548679,0.1789644,0.6157228,235,31,189
2493.41,1.665625,-9.658209,2.566584,0.3782839,0.4538026,0.1832255,0.6167881,120,57,226
2493.414,1.669531,-9.710882,2.700659,0.4836287,0.4484763,0.1864213,0.6199839,128,136,138
2493.418,1.673437,-9.80665,2.829946,0.5123592,0.4356932,0.1874865,0.6221144,207,117,173
2493.422,1.677344,-9.758766,3.021482,0.5554548,0.4197142,0.1992044,0.6274408,218,63,212
2493.426,1.68125,-9.797073,3.165135,0.6464344,0.390952,0.185356,0.6317018,166,18,165
2493.43,1.685156,-9.773131,3.107674,0.7086837,0.366451,0.2119876,0.6338323,163,114,217
2493.434,1.689062,-9.773131,3.08852,0.794875,0.3462109,0.1832255,0.6306365,203,144,138
2493.438,1.692969,-9.80665,2.973598,0.7613561,0.3238404,0.2024002,0.6306365,231,-6,166
2493.441,1.696875,-9.739612,2.920926,0.8092402,0.3057309,0.1874865,0.6295713,231,54,208
2493.445,1.700781,-9.720459,2.916138,0.914585,0.2908172,0.1960087,0.6327671,130,95,196
2493.449,1.704687,-9.634267,2.806004,0.914585,0.2844256,0.1864213,0.6338323,139,117,159
2493.453,1.708594,-9.667786,2.753332,1.000776,0.2759035,0.1970739,0.6380934,207,45,165
2493.457,1.7125,-9.548076,2.600103,1.029507,0.2759035,0.1928129,0.6412892,216,37,215
2493.461,1.716406,-9.557653,2.5187,0.9624691,0.2790993,0.1896171,0.6455502,147,1,210
2493.465,1.720312,-9.543288,2.461239,0.890643,0.2865561,0.1960087,0.6466155,167,93,160
2493.469,1.724219,-9.538499,2.418144,0.9864111,0.294013,0.1842907,0.6455502,187,111,157
2493.473,1.728125,-9.552865,2.470816,0.9624691,0.3004046,0.185356,0.648746,168,15,216
2493.477,1.732031,-9.548076,2.494758,0.9624691,0.3067962,0.1864213,0.6498113,117,51,206
2493.48,1.735937,-9.418789,2.652775,0.9720459,0.309992,0.1821602,0.6530071,152,107,158
2493.484,1.739844,-9.409213,2.772486,0.866701,0.314253,0.1874865,0.6593987,270,125,149
2493.488,1.74375,-9.385271,2.949656,0.7709329,0.3163835,0.1778992,0.664725,201,31,127
2493.492,1.747656,-9.390059,3.20823,0.6655881,0.3206446,0.1789644,0.6721819,116,19,173
2493.496,1.751562,-9.414001,3.361459,0.5410896,0.3163835,0.1768339,0.6764429,109,59,219
2493.5,1.755469,-9.495404,3.442862,0.4213795,0.3121225,0.181095,0.6796387,183,94,146
2493.504,1.759375,-9.557653,3.433285,0.2298434,0.3046656,0.1821602,0.6775082,194,74,122
2493.508,1.763281,-9.615114,3.366248,0.08140286,0.3025351,0.181095,0.6775082,202,40,265
2493.512,1.767187,-9.682152,3.313575,0.009576807,0.309992,0.1832255,0.6775082,165,101,204
2493.516,1.771094,-9.768343,3.150769,-0.02873042,0.3249057,0.1715076,0.6753777,143,132,159
2493.52,1.775,-9.787496,3.016694,-0.07182605,0.3376888,0.1747034,0.6764429,172,99,131
2493.523,1.778906,-9.787496,3.031059,-0.02873042,0.3387541,0.1736381,0.6785734,199,68,223
2493.527,1.782812,-9.864111,3.126827,-0.004788403,0.3376888,0.1778992,0.6817692,142,43,234
2493.531,1.786719,-9.830592,3.174711,0.009576807,0.3366236,0.1800297,0.6870956,108,106,159
2493.535,1.790625,-9.797073,3.284845,0.09097966,0.3472762,0.1747034,0.6934871,173,69,166
2493.539,1.794531,-9.821015,3.44765,0.09097966,0.3579289,0.169377,0.6977482,189,-6,222
2493.543,1.798437,-9.883264,3.529053,-0.02394202,0.3824299,0.1619202,0.6988135,196,45,218
2493.547,1.802344,-9.883264,3.500323,0.1340753,0.3984089,0.1576591,0.6998787,130,99,219
2493.551,1.80625,-9.969456,3.533842,0.225055,0.4133226,0.1544633,0.6956177,161,141,130
2493.555,1.810156,-9.878476,3.462016,0.2585738,0.4324974,0.1406149,0.6945524,218,59,155
2493.559,1.814062,-9.854534,3.356671,0.3303998,0.4516721,0.1512675,0.6977482,162,27,213
2493.562,1.817969,-9.71567,3.232172,0.3974375,0.4783037,0.1512675,0.7041398,119,109,229
2493.566,1.821875,-9.701305,3.20823,0.3878607,0.5017395,0.1597897,0.7094661,134,113,135
2493.57,1.825781,-9.706094,3.064578,0.4165911,0.5283712,0.1565939,0.7137272,201,48,142
2493.574,1.829687,-9.749189,3.021482,0.4836287,0.5592638,0.1725728,0.7179882,209,3,188
2493.578,1.833594,-9.873688,3.016694,0.4596867,0.6050702,0.1672465,0.721184,164,65,210
2493.582,1.8375,-9.902418,2.920926,0.5123592,0.6338323,0.1778992,0.7265103,145,144,146
2493.586,1.841406,-9.940725,2.825158,0.6129156,0.6689861,0.1821602,0.737163,247,121,169
2493.59,1.845312,-10.00776,2.657564,0.6320692,0.6966829,0.1906823,0.7467504,225,82,219
2493.594,1.849219,-10.05086,2.585738,0.8331822,0.7286409,0.1864213,0.757403,138,46,184
2493.598,1.853125,-9.931148,2.442086,1.039084,0.7563377,0.2141182,0.7787083,113,96,248
2493.602,1.857031,-9.873688,2.48997,1.144428,0.7797736,0.2194445,0.793622,191,125,191
2493.605,1.860937,-9.816227,2.48997,1.216254,0.7893609,0.2503371,0.8181231,196,64,139
2493.609,1.864844,-9.744401,2.528277,1.249773,0.7989483,0.2641856,0.8351673,200,41,224
2493.613,1.86875,-9.696517,2.619257,1.479617,0.809601,0.2993393,0.8586031,110,123,197
2493.617,1.872656,-9.840169,2.753332,1.632846,0.813862,0.3153183,0.8735168,124,155,141
2493.621,1.876562,-9.821015,2.873042,1.814805,0.8117315,0.3387541,0.8863,213,55,145
2493.625,1.880469,-9.916783,2.930503,1.814805,0.8042746,0.3600594,0.9033442,209,63,226
2493.629,1.884375,-9.974244,2.853888,1.824382,0.7904262,0.4048005,0.9278453,87,86,215
2493.633,1.888281,-10.1179,2.815581,1.666364,0.7648599,0.4463458,0.9502159,115,156,162
2493.637,1.892187,-10.25676,2.772486,1.628057,0.7360977,0.4814995,0.974717,236,108,152
2493.641,1.896094,-10.41957,2.748544,1.666364,0.7084008,0.5166533,1.001349,214,47,222
2493.645,1.9,-10.63504,2.657564,1.604115,0.6913566,0.5507417,1.02798,144,35,217
2493.648,1.903906,-10.80743,2.533065,1.479617,0.6785734,0.6050702,1.065264,138,133,161
2493.652,1.907812,-10.85052,2.446874,1.513135,0.6657903,0.6327671,1.090831,177,204,178
2493.656,1.911719,-10.95108,2.231396,1.49877,0.648746,0.6753777,1.118528,184,72,150
2493.66,1.915625,-11.06121,2.030283,1.49877,0.6391587,0.7115966,1.144094,209,0,217
2493.664,1.919531,-11.05163,1.805228,1.647211,0.624245,0.7787083,1.184574,139,121,209
2493.668,1.923437,-10.99417,1.695095,1.771709,0.6274408,0.7925567,1.217597,148,143,152
2493.672,1.927344,-11.02769,1.628057,1.786074,0.6295713,0.8532768,1.252751,199,40,179
2493.676,1.93125,-11.01333,1.599327,1.762132,0.6327671,0.8788432,1.290035,184,56,234
2493.68,1.935156,-11.10431,1.489193,1.795651,0.6391587,0.9459548,1.336907,112,140,185
2493.684,1.939062,-11.24317,1.489193,1.70946,0.6530071,0.9640643,1.370995,124,144,144
2493.688,1.942969,-11.29584,1.446098,1.584961,0.6711166,1.015197,1.406149,215,140,144
2493.691,1.946875,-11.44428,1.292869,1.422156,0.6977482,1.026915,1.433846,188,43,237
2493.695,1.950781,-11.48738,1.225831,1.398214,0.7275756,1.076982,1.461543,160,87,249
2493.699,1.954687,-11.6454,1.005565,1.192312,0.7893609,1.091896,1.493501,165,127,154
2493.703,1.958594,-11.75553,0.9337386,1.043872,0.8404936,1.136637,1.522263,182,154,158
2493.707,1.9625,-11.8513,0.8858546,0.9768343,0.9044095,1.133441,1.547829,216,61,143
2493.711,1.966406,-11.88482,0.8092402,0.9720459,0.9693906,1.182444,1.578722,112,73,207
2493.715,1.970312,-11.94707,0.9337386,1.134852,1.085504,1.1899,1.619202,157,127,249
2493.719,1.974219,-12.0572,1.01993,1.053449,1.171791,1.246359,1.658617,116,138,151
2493.723,1.978125,-12.10508,1.192312,0.914585,1.254882,1.261273,1.69377,196,74,184
2493.727,1.982031,-12.44506,1.23062,0.7613561,1.326254,1.331581,1.73212,195,105,223
2493.73,1.985937,-13.1298,1.077391,0.7086837,1.439172,1.375256,1.780057,121,145,215
2493.734,1.989844,-13.92947,0.7996634,0.5363012,1.545699,1.413606,1.815211,141,179,162
2493.738,1.99375,-14.7818,0.2442086,0.1675941,1.662878,1.440238,1.840777,194,159,149
2493.742,1.997656,-15.79694,-0.5889736,-0.1580173,1.789644,1.462608,1.863147,211,74,257
2493.746,2.001562,-16.85039,-1.398214,-0.1628057,1.933455,1.478587,1.884453,142,46,236
2493.75,2.005469,-17.81286,-2.384625,0.07661445,2.143312,1.496697,1.906823,140,161,164
2493.754,2.009375,-18.38747,-3.213019,0.7182605,2.295645,1.522263,1.920672,226,169,171
2493.758,2.013281,-18.54549,-4.343082,1.149217,2.444782,1.539307,1.924933,219,55,232
2493.762,2.017187,-18.55506,-5.583278,1.302446,2.572614,1.608549,1.923868,102,77,212
2493.766,2.021094,-18.15763,-6.708553,1.431733,2.685532,1.667139,1.902562,127,142,237
2493.77,2.025,-17.62611,-6.919243,1.446098,2.71749,1.753425,1.883388,141,166,196
2493.773,2.028906,-17.15206,-6.603208,1.240196,2.727077,1.817341,1.843973,234,113,129
2493.777,2.032812,-16.64449,-5.688623,1.407791,2.687662,1.890844,1.788579,197,117,253
2493.781,2.036719,-16.06988,-4.611232,1.637634,2.617355,1.969674,1.745968,153,162,235
2493.785,2.040625,-15.80173,-3.150769,1.594538,2.53959,2.021872,1.705488,161,156,190
2493.789,2.044531,-15.50485,-1.972822,1.771709,2.473544,2.073005,1.701227,183,78,162
2493.793,2.048437,-15.1122,-0.5650316,1.704672,2.412824,2.084723,1.710815,218,116,235
2493.797,2.052344,-14.79138,0.7709329,1.604115,2.351039,2.084723,1.731055,127,109,237
2493.801,2.05625,-14.13058,2.585738,1.082179,2.260491,2.113485,1.776861,189,135,207
2493.805,2.060156,-13.57991,3.845088,1.192312,2.19551,2.117746,1.81095,234,172,192
2493.809,2.064062,-12.82813,4.745308,1.80044,2.139051,2.168878,1.847169,221,121,234
2493.812,2.067969,-12.49294,5.975927,1.096544,2.148638,2.193379,1.883388,156,119,240
2493.816,2.071875,-12.45943,6.517017,0.794875,2.073005,2.172074,1.922802,136,152,259
2493.82,2.075781,-12.469,6.526594,0.6081272,1.967543,2.17527,1.921737,225,171,172
2493.824,2.079687,-12.64138,6.732495,0.1244985,1.902562,2.179531,1.900432,262,118,186
2493.828,2.083594,-12.93348,6.86657,-0.4165911,1.852495,2.15716,1.858886,250,127,251
2493.832,2.0875,-13.35486,7.058106,-1.11091,1.808819,2.161422,1.802427,149,168,262
2493.836,2.091406,-13.72835,7.182605,-1.661576,1.759817,2.106028,1.680987,186,201,217
2493.84,2.095312,-13.9582,7.513005,-1.905785,1.700162,2.057026,1.576591,249,128,165
2493.844,2.099219,-14.09706,7.694964,-1.905785,1.609615,1.976066,1.467934,247,113,245
2493.848,2.103125,-14.13537,7.805097,-2.154781,1.486044,1.897236,1.348625,182,126,226
2493.852,2.107031,-13.77145,7.881712,-2.60968,1.34969,1.750229,1.192031,155,181,213
2493.855,2.110937,-13.42668,7.785944,-2.829946,1.252751,1.652225,1.072721,242,173,193
2493.859,2.114844,-13.00052,7.560889,-3.074155,1.164334,1.519067,0.9598033,239,107,226
2493.863,2.11875,-12.49294,7.393295,-3.270479,1.101483,1.397627,0.8522115,142,85,262
2493.867,2.122656,-11.86566,7.072472,-3.691859,1.022654,1.226119,0.7115966,185,166,209
2493.871,2.126562,-11.36288,6.962338,-3.864241,0.9672601,1.098288,0.6040049,249,188,204
2493.875,2.130469,-10.70687,7.201759,-4.098873,0.9502159,0.9885654,0.5049353,237,78,167
2493.879,2.134375,-10.18972,7.642292,-4.400543,0.9885654,0.8607337,0.4218447,262,146,223
2493.883,2.138281,-9.562441,8.049306,-4.448427,1.057808,0.7137272,0.3494067,206,205,199
2493.887,2.142187,-8.585607,8.604761,-4.271256,1.20801,0.5336975,0.2673814,165,187,210
2493.891,2.146094,-7.85777,8.868123,-4.141969,1.314536,0.4197142,0.2109224,256,149,187
2493.895,2.15,-7.134721,8.848969,-4.472369,1.379517,0.3419499,0.1619202,227,140,254
2493.898,2.153906,-6.430826,8.623914,-4.898537,1.40828,0.2631203,0.1161138,160,204,250
2493.902,2.157812,-5.549759,8.322245,-5.48751,1.421063,0.2503371,0.0809601,199,198,174
2493.906,2.161719,-5.090073,7.963115,-5.717354,1.370995,0.2652508,0.07030745,241,197,184
2493.91,2.165625,-4.831499,7.43639,-5.674258,1.260208,0.2950782,0.07137272,237,82,245
2493.914,2.169531,-4.740519,6.909666,-5.612009,1.110006,0.314253,0.07669904,185,109,254
2493.918,2.173437,-5.00867,6.47871,-5.15711,0.90654,0.3270362,0.07030745,202,217,175
2493.922,2.177344,-5.3678,5.961562,-4.860229,0.7680557,0.2567287,0.02769688,286,234,163
2493.926,2.18125,-5.774814,5.717354,-4.510676,0.644485,0.1672465,-0.04261058,272,144,208
2493.93,2.185156,-6.100426,5.592855,-4.247314,0.5347627,0.03408846,-0.1406149,198,111,247
2493.934,2.189062,-6.291962,5.497087,-4.003105,0.4186489,-0.1320928,-0.257794,199,181,251
2493.938,2.192969,-6.449979,5.640739,-3.926491,0.2588593,-0.3952131,-0.4388889,187,212,214
2493.941,2.196875,-6.392518,5.760449,-3.969586,0.1320928,-0.588026,-0.5858954,297,124,172
2493.945,2.200781,-6.157887,5.899313,-4.070143,0.003195793,-0.7669904,-0.7318367,260,160,240
2493.949,2.204687,-5.870582,6.066907,-4.285621,-0.1257012,-0.9416938,-0.8777779,197,215,206
2493.953,2.208594,-5.343858,6.210559,-4.534618,-0.2854909,-1.120658,-1.057808,209,216,195
2493.957,2.2125,-4.932055,6.282385,-4.663905,-0.3898868,-1.232511,-1.184574,246,181,185
2493.961,2.216406,-4.458003,6.291962,-4.716577,-0.4751079,-1.34969,-1.299623,248,162,283
2493.965,2.220312,-4.050989,6.363788,-4.754884,-0.5411543,-1.458347,-1.406149,176,84,260
2493.969,2.224219,-3.481169,6.47871,-4.793192,-0.6050702,-1.546764,-1.498827,192,160,153
2493.973,2.228125,-3.074155,6.397307,-4.76925,-0.6615292,-1.687379,-1.61068,218,180,152
2493.977,2.232031,-2.75812,6.320692,-4.879383,-0.6860303,-1.796036,-1.682053,291,129,254
2493.98,2.235937,-2.461239,6.138733,-4.960786,-0.6998787,-1.883388,-1.748099,189,110,251
2493.984,2.239844,-2.231396,5.798756,-5.032612,-0.7041398,-1.963282,-1.807754,194,190,245
2493.988,2.24375,-2.035071,5.482722,-5.066131,-0.700944,-2.087918,-1.879126,289,155,161
2493.992,2.247656,-1.944092,5.046977,-5.027823,-0.7020093,-2.145443,-1.930259,254,91,182
2493.996,2.251562,-1.843535,4.659116,-5.090073,-0.7052051,-2.19551,-1.980327,253,125,232
2494,2.255469,-1.814805,4.534618,-5.343858,-0.7392935,-2.218946,-2.022937,172,174,215
2494.004,2.259375,-1.771709,4.141969,-5.559336,-0.8554073,-2.214685,-2.087918,185,185,202
2494.008,2.263281,-1.982399,3.983952,-5.453991,-0.9661948,-2.198706,-2.148638,290,80,209
2494.012,2.267187,-2.221819,3.974375,-5.33907,-1.065264,-2.198706,-2.214685,258,86,220
2494.016,2.271094,-2.408567,4.170699,-5.319916,-1.14729,-2.204032,-2.287123,181,87,256
2494.02,2.275,-2.633622,4.481946,-5.243302,-1.220793,-2.186988,-2.358495,205,165,167
2494.023,2.278906,-3.078943,4.903325,-5.109226,-1.325189,-2.177401,-2.442651,242,154,152
2494.027,2.282812,-3.457227,5.133168,-4.941632,-1.400823,-2.189118,-2.509763,270,75,239
2494.031,2.286719,-3.754108,5.315128,-4.812345,-1.47113,-2.212554,-2.58007,194,93,204
2494.035,2.290625,-4.027047,5.415684,-4.64954,-1.540372,-2.253034,-2.650378,178,132,144
2494.039,2.294531,-4.34787,5.410896,-4.491522,-1.621332,-2.327603,-2.744121,258,163,161
2494.043,2.298437,-4.448427,5.291186,-4.43885,-1.669269,-2.394714,-2.813363,280,88,162
2494.047,2.302344,-4.534618,5.123592,-4.31914,-1.718272,-2.447978,-2.880475,179,80,224
2494.051,2.30625,-4.548983,4.984728,-4.276044,-1.761947,-2.507632,-2.943326,219,151,232
2494.055,2.310156,-4.563348,4.64954,-4.146757,-1.809884,-2.582201,-3.018959,195,162,151
2494.059,2.314062,-4.630386,4.390966,-4.209007,-1.822667,-2.653574,-3.074353,255,68,164
2494.062,2.317969,-4.639963,4.170699,-4.22816,-1.81308,-2.720685,-3.128682,242,76,252
2494.066,2.321875,-4.759673,3.974375,-4.209007,-1.771535,-2.769688,-3.18301,193,141,246
2494.07,2.325781,-4.836287,3.916914,-4.19943,-1.704423,-2.854909,-3.246926,165,122,173
2494.074,2.329687,-4.898537,3.821146,-4.194641,-1.593636,-2.928412,-3.334278,251,105,177
2494.078,2.333594,-5.046977,3.720589,-4.189853,-1.505219,-2.991263,-3.401389,244,53,244
2494.082,2.3375,-5.118803,3.634398,-4.07972,-1.421063,-3.055178,-3.471697,168,58,220
2494.086,2.341406,-5.252878,3.438074,-4.13718,-1.343298,-3.088202,-3.535613,201,142,156
2494.09,2.345312,-5.334281,3.251326,-4.247314,-1.245294,-3.139334,-3.613377,275,126,147
2494.094,2.349219,-5.511452,3.136404,-4.213795,-1.181378,-3.168096,-3.662379,272,40,233
2494.098,2.353125,-5.683835,3.011906,-4.151546,-1.115332,-3.179814,-3.700729,172,73,209
2494.102,2.357031,-5.889736,3.232172,-4.146757,-1.037568,-3.197924,-3.734817,199,79,215
2494.105,2.360937,-6.344634,3.576937,-3.955221,-0.9502159,-3.229882,-3.763579,242,103,174
2494.109,2.364844,-6.780379,4.113238,-3.888183,-0.8234494,-3.230947,-3.794472,286,72,152
2494.113,2.36875,-7.220912,4.285621,-3.907337,-0.7339672,-3.244795,-3.813647,291,74,192
2494.117,2.372656,-7.900865,4.443638,-3.859453,-0.660464,-3.24373,-3.822169,195,130,235
2494.121,2.376562,-8.489839,4.548983,-3.940856,-0.6146576,-3.232012,-3.820038,179,118,150
2494.125,2.380469,-9.23683,4.548983,-3.758897,-0.588026,-3.230947,-3.80619,269,53,146
2494.129,2.384375,-9.725247,4.754884,-3.529053,-0.592287,-3.246926,-3.78595,307,56,183
2494.133,2.388281,-10.16578,5.013458,-3.438074,-0.6072007,-3.249057,-3.763579,216,45,204
2494.137,2.392187,-10.41957,5.267244,-3.414132,-0.628506,-3.272492,-3.741209,219,161,135
2494.141,2.396094,-10.60631,5.731719,-3.318364,-0.6593987,-3.30232,-3.714577,257,110,154
2494.145,2.4,-10.6925,6.019023,-3.256114,-0.6860303,-3.32469,-3.690076,287,67,192
2494.148,2.403906,-10.69729,6.272808,-3.275268,-0.7126619,-3.337473,-3.663444,202,49,221
2494.152,2.407812,-10.74039,6.47871,-3.361459,-0.7392935,-3.3428,-3.630421,228,151,229
2494.156,2.411719,-10.76912,6.574478,-3.251326,-0.7669904,-3.343865,-3.597398,268,129,117
2494.16,2.415625,-10.94629,6.665457,-3.246537,-0.8127968,-3.345996,-3.549461,293,43,120
2494.164,2.419531,-11.13304,6.818686,-3.083732,-0.8522115,-3.351322,-3.500459,258,38,197
2494.168,2.423437,-11.41077,6.933608,-3.083732,-0.9086706,-3.3428,-3.437608,203,130,196
2494.172,2.427344,-11.65976,7.086837,-3.074155,-0.9875001,-3.335343,-3.358779,182,110,139
2494.176,2.43125,-12.06199,7.201759,-3.031059,-1.144094,-3.308711,-3.242665,311,58,161
2494.18,2.435156,-12.28704,7.211335,-3.002329,-1.28897,-3.287406,-3.147856,301,46,193
2494.184,2.439062,-12.36366,6.679823,-2.389413,-1.43065,-3.224555,-3.042395,261,138,191
2494.188,2.442969,-12.12903,6.311116,-0.6464344,-1.516937,-3.114833,-2.928412,215,107,124
2494.191,2.446875,-12.3445,6.224924,-1.900996,-1.449825,-3.032808,-2.770753,287,127,156
2494.195,2.450781,-12.44027,5.813122,-1.369483,-1.510545,-2.985936,-2.69725,285,-3,196
2494.199,2.454687,-12.32056,5.224148,-1.182736,-1.571265,-2.923086,-2.646117,221,47,214
2494.203,2.458594,-12.22479,4.845864,-1.369483,-1.587244,-2.839995,-2.596049,190,114,110
2494.207,2.4625,-12.06678,4.381389,-1.312023,-1.61068,-2.756904,-2.551308,322,77,111
2494.211,2.466406,-11.51611,3.916914,-1.206678,-1.606419,-2.661031,-2.523611,305,34,146
2494.215,2.470312,-11.09952,3.801992,-1.072602,-1.569135,-2.553439,-2.507632,217,57,209
2494.219,2.474219,-10.73081,3.529053,-0.8954314,-1.524393,-2.431999,-2.481001,237,93,192
2494.223,2.478125,-10.49618,3.241749,-0.5315128,-1.464739,-2.319081,-2.433064,234,124,80
2494.227,2.482031,-10.25676,2.801216,-0.1723825,-1.384844,-2.129464,-2.342516,277,43,114
2494.23,2.485937,-10.10832,2.628833,0.1580173,-1.341168,-1.999501,-2.248773,276,36,178
2494.234,2.489844,-9.945514,2.509123,0.6272808,-1.308145,-1.846103,-2.130529,222,105,215
2494.238,2.49375,-9.662998,2.351106,0.9097966,-1.274056,-1.692705,-1.990979,244,99,126
2494.242,2.497656,-9.303868,2.317587,1.11091,-1.219728,-1.556351,-1.841842,346,131,97
2494.246,2.501562,-8.896853,2.346318,1.369483,-1.177117,-1.34969,-1.611745,314,45,161
2494.25,2.505469,-8.528146,2.42772,1.326388,-1.12705,-1.21014,-1.42852,240,46,177
2494.254,2.509375,-8.197746,2.624045,1.312023,-1.082309,-1.057808,-1.233576,261,100,110
2494.258,2.513281,-7.800309,2.82037,1.268927,-1.035437,-0.9193232,-1.031176,295,105,147
2494.262,2.517187,-7.31668,3.303998,1.426944,-0.9853696,-0.7254451,-0.7605988,309,43,194
2494.266,2.521094,-6.933608,3.56736,1.527501,-0.9512811,-0.5741775,-0.5443501,252,77,212
2494.27,2.525,-6.62715,3.773262,1.355118,-0.9353022,-0.4452805,-0.3355583,203,72,185
2494.273,2.528906,-6.349423,3.878607,1.312023,-0.922519,-0.294013,-0.128897,228,115,109
2494.277,2.532812,-6.062119,3.96001,1.249773,-0.8990832,-0.1054612,0.1427454,300,16,136
2494.281,2.536719,-5.765238,4.046201,1.154005,-0.8745821,0.02130529,0.3419499,313,30,185
2494.285,2.540625,-5.640739,4.036624,1.01993,-0.850081,0.1619202,0.5411543,214,113,186
2494.289,2.544531,-5.506664,3.998317,0.890643,-0.8277105,0.2950782,0.7382283,226,59,126
2494.293,2.548437,-5.382165,4.118027,0.8523358,-0.8149273,0.4293016,0.9299759,325,58,107
2494.297,2.552344,-5.305551,4.43885,0.5123592,-0.793622,0.6050702,1.173921,315,5,177
2494.301,2.55625,-5.358223,4.735731,0.3543418,-0.7840346,0.7339672,1.348625,252,23,189
2494.305,2.560156,-5.439626,4.860229,-0.04309563,-0.7648599,0.86606,1.50948,213,99,113
2494.309,2.564062,-5.683835,4.936844,-0.5889736,-0.7584683,0.9928265,1.656486,321,84,123
2494.312,2.567969,-6.445191,4.711789,-2.073379,-0.7478156,1.115332,1.827994,329,72,183
2494.316,2.571875,-7.335834,4.367024,-1.355118,-0.7137272,1.174987,1.927063,247,3,209
2494.32,2.575781,-8.470685,4.151546,-0.9768343,-0.6125271,1.156877,1.998436,233,103,207
2494.324,2.579687,-9.950302,3.1795,0.6943185,-0.5528722,1.117462,2.031459,316,112,126
2494.328,2.583594,-13.26867,-0.1867477,4.218583,-0.5869607,0.9821738,1.986718,289,33,167
2494.332,2.5875,-16.7211,-4.496311,6.526594,-0.7265103,0.8330368,1.83119,295,47,201
2494.336,2.591406,-19.95807,-9.868899,8.350975,-0.9906959,0.6562029,1.545699,213,122,173
2494.34,2.595312,-22.60126,-15.70117,7.642292,-1.299623,0.4356932,1.155812,204,81,105
2494.344,2.599219,-24.86618,-18.44972,2.207454,-1.47113,0.2663161,0.6860303,315,41,89
2494.348,2.603125,-30.55959,-12.14818,-3.141193,-1.234641,0.4910869,0.4420847,303,50,188
2494.352,2.607031,-31.55558,-2.15957,-2.226608,-0.9235843,0.4910869,0.8287757,212,40,199
2494.355,2.610937,-26.26918,5.770026,-2.705448,-0.6146576,0.1587244,1.326254,226,127,119
2494.359,2.614844,-18.78012,8.959103,-1.206678,-0.1789644,0.004261058,1.523328,269,116,116
2494.363,2.61875,-12.74673,6.17704,-0.2394202,0.1757686,0.169377,1.494566,290,47,212
2494.367,2.622656,-11.07079,1.896208,1.73819,0.2354234,0.3089267,1.445564,239,26,182
2494.371,2.626562,-8.322245,0.7086837,2.647987,0.1640507,0.3898868,1.356082,212,119,200
2494.375,2.630469,-5.832275,2.930503,1.010353,-0.05113269,0.5134575,1.276187,339,68,121
2494.379,2.634375,-5.272032,5.085284,-1.010353,-0.350472,0.8351673,1.477522,304,62,63
2494.383,2.638281,-6.306327,6.655881,-1.68073,-0.4303668,1.015197,1.73212,302,44,183
2494.387,2.642187,-7.465121,7.460332,-1.388637,-0.4495416,1.042894,1.889779,220,139,206
2494.391,2.646094,-8.00621,8.523358,-1.532289,-0.5241101,0.9843043,1.948369,215,102,123
2494.395,2.65,-7.848193,9.849746,-1.982399,-0.7350325,0.9555422,1.970739,305,39,108
2494.398,2.653906,-7.671022,11.51611,-2.015918,-1.178182,0.974717,1.975,312,48,206
2494.402,2.657812,-7.872135,11.73159,-1.508347,-1.532916,0.9502159,1.940912,219,57,205
2494.406,2.661719,-8.671798,11.0229,-0.8619126,-1.821602,0.9214537,1.856756,211,125,84
2494.41,2.665625,-9.763554,9.859322,-0.3639187,-2.032525,0.8372978,1.73212,303,104,138
2494.414,2.669531,-11.20008,8.159439,0.1340753,-2.208293,0.7179882,1.538242,258,53,185
2494.418,2.673437,-11.77468,6.670246,0.06703765,-2.232794,0.5933523,1.386974,230,53,184
2494.422,2.677344,-11.91355,5.056554,0.3112462,-2.13479,0.4559332,1.221858,229,100,105
2494.426,2.68125,-11.69807,3.562572,1.450886,-1.923868,0.334493,1.052481,279,77,120
2494.43,2.685156,-11.88482,1.929727,1.091756,-1.656486,0.2247708,0.8990832,293,38,110
2494.434,2.689062,-11.87524,1.355118,0.6847417,-1.237837,0.1043959,0.8000136,200,59,201
2494.438,2.692969,-11.4778,1.742979,1.086968,-0.9310411,0.02556635,0.850081,194,116,190
2494.441,2.696875,-11.02769,1.805228,0.890643,-0.6274408,-0.04687164,0.9651296,176,85,136
2494.445,2.700781,-10.86489,1.374272,0.6512229,-0.2876214,-0.07137272,1.071656,239,60,103
2494.449,2.704687,-10.97023,0.3064578,0.4501099,0.1747034,-0.07563377,1.130246,248,30,162
2494.453,2.708594,-10.87446,-0.2920926,0.4548983,0.46339,-0.07989483,1.119593,217,123,201
2494.457,2.7125,-10.36689,-0.4596867,0.2442086,0.6977482,-0.08735168,1.090831,163,110,120
2494.461,2.716406,-9.840169,-0.5315128,-0.1771709,0.9001484,-0.07456851,1.059938,221,120,129
2494.465,2.720312,-9.078813,-0.5171476,-0.9433155,1.122789,-0.05432849,1.004544,279,65,180
2494.469,2.724219,-8.657433,-0.4165911,-1.455675,1.253816,-0.008522115,0.9715212,215,20,191
2494.473,2.728125,-8.408436,-0.3782839,-1.781286,1.346494,0.01278317,0.9363674,186,136,149
2494.477,2.732031,-8.355764,-0.3399766,-1.905785,1.396562,0.0479369,0.9001484,259,108,173
2494.48,2.735937,-8.403648,-0.1915361,-1.838747,1.426389,0.07669904,0.8649947,290,58,201
2494.484,2.739844,-8.528146,0.296881,-1.61848,1.462608,0.09054748,0.8202536,159,28,196
2494.488,2.74375,-8.805874,0.8523358,-1.383849,1.478587,0.09161274,0.7925567,202,134,191
2494.492,2.747656,-9.184158,1.570596,-1.058237,1.480718,0.09800433,0.7701862,209,108,118
2494.496,2.751562,-9.572018,2.446874,-0.5363012,1.469,0.09693906,0.7637946,221,66,156
2494.5,2.755469,-10.22324,3.797204,0.03830723,1.421063,0.08415589,0.7659251,258,30,187
2494.504,2.759375,-10.57758,4.759673,0.5506664,1.34756,0.08202536,0.7712515,213,145,185
2494.508,2.763281,-10.82179,5.72693,1.130063,1.231446,0.05965481,0.7819041,166,134,143
2494.512,2.767187,-11.04206,6.593631,1.594538,1.070591,0.06924219,0.793622,289,49,162
2494.516,2.771094,-11.07079,7.431602,2.001553,0.7968178,0.06924219,0.8085357,251,50,198
2494.52,2.775,-11.06121,7.762002,2.389413,0.5571333,0.05752428,0.8106662,199,63,196
2494.523,2.778906,-10.97502,7.694964,2.614468,0.3014698,0.08309063,0.8032094,168,107,146
2494.527,2.782812,-10.79306,7.31668,2.892196,0.04580637,0.07669904,0.7808388,289,130,84
2494.531,2.786719,-10.66856,6.713341,3.040636,-0.1949434,0.09800433,0.7552725,260,55,182
2494.535,2.790625,-10.48181,5.693412,3.294421,-0.4697816,0.08628642,0.7137272,211,29,174
2494.539,2.794531,-10.38126,4.707,3.380613,-0.6317018,0.08522115,0.684965,204,111,203
2494.543,2.798437,-10.23282,3.787627,3.409343,-0.7488809,0.0660464,0.6530071,295,130,168
2494.547,2.802344,-10.04128,2.710236,3.351882,-0.8085357,0.06178534,0.6263755,251,8,104
2494.551,2.80625,-9.907206,1.154005,3.256114,-0.7914915,0.03728426,0.5954828,235,40,211
2494.555,2.810156,-9.797073,0.004788403,3.141193,-0.6924219,0.02343582,0.5826996,236,120,168
2494.559,2.814062,-9.710882,-1.177947,2.94008,-0.531567,0.006391587,0.5752428,205,110,138
2494.562,2.817969,-9.47625,-2.207454,2.873042,-0.3078614,-0.01597897,0.5741775,313,1,122
2494.566,2.821875,-9.040505,-2.992752,2.782062,0.06498113,-0.05326322,0.5773733,259,83,177
2494.57,2.825781,-8.657433,-3.711013,2.700659,0.3760383,-0.06924219,0.5826996,157,59,172
2494.574,2.829687,-8.197746,-3.907337,2.513912,0.6945524,-0.08202536,0.588026,211,137,133
2494.578,2.833594,-7.8865,-3.916914,2.284068,0.9906959,-0.0479369,0.5912218,273,103,139
2494.582,2.8375,-7.694964,-3.715801,2.126051,1.262338,-0.04261058,0.5944176,292,81,173
2494.586,2.841406,-7.714118,-3.189077,1.862689,1.554221,0.01171791,0.5954828,173,58,193
2494.59,2.845312,-7.838616,-2.585738,1.757344,1.717206,0.05113269,0.588026,205,103,122
2494.594,2.849219,-8.039729,-1.771709,1.695095,1.827994,0.1022654,0.5826996,248,120,145
2494.598,2.853125,-8.240842,-0.8858546,1.623269,1.888714,0.1395496,0.5869607,271,31,182
2494.602,2.857031,-8.595184,0.3495534,1.561019,1.902562,0.1778992,0.5976133,254,56,207
2494.605,2.860937,-8.973468,1.388637,1.508347,1.861017,0.2024002,0.6135923,223,118,210
2494.609,2.864844,-9.32781,2.48997,1.541866,1.774731,0.2226403,0.6306365,157,102,122
2494.613,2.86875,-9.749189,3.471592,1.656788,1.654356,0.2226403,0.6466155,274,61,121
2494.617,2.872656,-10.30464,4.376601,1.781286,1.503088,0.2428803,0.6615292,262,30,189
2494.621,2.876562,-10.6111,5.315128,2.011129,1.265534,0.2322276,0.6764429,189,126,192
2494.625,2.880469,-10.79785,5.793968,2.121263,1.064199,0.2439456,0.680704,179,109,132
2494.629,2.884375,-10.93192,6.009446,2.207454,0.8522115,0.2247708,0.6860303,224,121,137
2494.633,2.888281,-10.87446,6.042965,2.327164,0.6370281,0.2492719,0.6870956,257,69,173
2494.637,2.892187,-10.74039,5.683835,2.437297,0.366451,0.2279666,0.6838998,197,27,212
2494.641,2.896094,-10.56801,5.228936,2.499547,0.181095,0.237554,0.6785734,167,124,151
2494.645,2.9,-10.41478,4.572925,2.523489,0.03621899,0.2322276,0.6753777,256,138,124
2494.648,2.903906,-10.34774,3.859453,2.5187,-0.0660464,0.2194445,0.6721819,277,17,164
2494.652,2.907812,-10.07959,2.987964,2.379836,-0.1374191,0.2066613,0.6721819,195,29,201
2494.656,2.911719,-9.830592,2.341529,2.288857,-0.1661813,0.1938781,0.6657903,163,102,210
2494.66,2.915625,-9.610325,1.900996,2.135628,-0.1704423,0.181095,0.6679208,153,124,126
2494.664,2.919531,-9.342175,1.527501,2.111686,-0.169377,0.1928129,0.6689861,256,19,134
2494.668,2.923437,-9.150639,1.206678,1.982399,-0.1533981,0.1842907,0.6711166,256,83,227
2494.672,2.927344,-8.978256,0.8810662,1.762132,-0.1278317,0.2002697,0.680704,162,101,179
2494.676,2.93125,-8.973468,0.7996634,1.561019,-0.09906959,0.2141182,0.6881608,181,144,108
2494.68,2.935156,-8.887277,0.8714894,1.340753,-0.05858954,0.205596,0.6956177,290,132,110
2494.684,2.939062,-8.892065,0.9433155,1.225831,-0.007456851,0.2343582,0.7105314,255,39,178
2494.688,2.942969,-9.021352,1.120486,0.9864111,0.07882957,0.2194445,0.7275756,137,45,169
2494.691,2.946875,-9.255984,1.13964,0.8810662,0.1512675,0.2545982,0.7435546,174,117,123
2494.695,2.950781,-9.490615,1.000776,0.7900865,0.2258361,0.2450108,0.7499462,253,145,120
2494.699,2.954687,-9.658209,0.9097966,0.7709329,0.2918825,0.2727077,0.7542072,292,36,210
2494.703,2.958594,-9.782708,0.9241618,0.7422025,0.3611246,0.273773,0.7520767,208,48,181
2494.707,2.9625,-9.782708,0.9385271,0.7852981,0.4005394,0.298274,0.757403,195,118,188
2494.711,2.966406,-9.811438,0.9241618,0.818817,0.4367584,0.3004046,0.7584683,197,120,143
2494.715,2.970312,-9.931148,1.144428,0.8762778,0.46339,0.314253,0.7648599,274,47,142
2494.719,2.974219,-10.0317,1.35033,0.9481039,0.4783037,0.3270362,0.773382,247,31,201
2494.723,2.978125,-10.1179,1.728614,0.9624691,0.4814995,0.3366236,0.7819041,229,99,222
2494.727,2.982031,-10.17536,1.982399,1.043872,0.4676511,0.3451457,0.7914915,194,131,139
2494.73,2.985937,-10.15142,2.193089,1.225831,0.4548679,0.3547331,0.8032094,258,52,153
2494.734,2.989844,-10.0317,2.346318,1.355118,0.4378237,0.3696468,0.813862,247,37,222
2494.738,2.99375,-9.940725,2.499547,1.532289,0.4282363,0.3685815,0.8309063,192,63,224
2494.742,2.997656,-9.940725,2.327164,1.47004,0.4154531,0.3813647,0.8372978,174,160,116
2494.746,3.001562,-9.859322,2.154781,1.465251,0.386691,0.386691,0.8447547,245,138,88
2494.75,3.005469,-9.830592,2.097321,1.695095,0.3568636,0.4111921,0.8596684,279,45,160
2494.754,3.009375,-9.653421,2.207454,1.73819,0.3270362,0.4079963,0.882039,199,49,203
2494.758,3.013281,-9.514557,2.15957,1.73819,0.3355583,0.4218447,0.9076053,200,123,218
2494.762,3.017187,-9.548076,2.078167,1.790863,0.3771036,0.427171,0.9139969,270,158,140
2494.766,3.021094,-9.562441,1.991976,1.719037,0.3941478,0.4367584,0.9214537,235,41,97
2494.77,3.025,-9.572018,1.924938,1.666364,0.4090615,0.4282363,0.9331716,264,62,232
2494.773,3.028906,-9.56723,2.044648,1.68073,0.4324974,0.4463458,0.9459548,197,121,150
2494.777,3.032812,-9.552865,2.446874,1.599327,0.4580637,0.4293016,0.9566075,173,108,137
2494.781,3.036719,-9.56723,2.753332,1.522712,0.479369,0.4559332,0.9704559,243,42,123
2494.785,3.040625,-9.59596,2.868254,1.537077,0.5113269,0.4420847,0.9757822,260,17,204
2494.789,3.044531,-9.821015,2.791639,1.570596,0.5496764,0.4601942,0.9800433,161,128,177
2494.793,3.048437,-9.92636,2.667141,1.556231,0.5837649,0.46339,0.9832391,158,92,115
2494.797,3.052344,-9.983821,2.537854,1.503559,0.6114618,0.4676511,0.9917612,251,108,131
2494.801,3.05625,-10.0317,2.461239,1.426944,0.648746,0.4655206,0.999218,248,66,205
2494.805,3.060156,-10.06522,2.461239,1.412579,0.6775082,0.4857606,1.00774,185,64,203
2494.809,3.064062,-10.14184,2.509123,1.302446,0.7126619,0.4889564,1.019458,185,122,106
2494.812,3.067969,-10.1562,2.547431,1.312023,0.7286409,0.515588,1.031176,266,157,140
2494.816,3.071875,-10.22803,2.552219,1.25935,0.7456851,0.5145227,1.041829,235,91,131
2494.82,3.075781,-10.31422,2.566584,1.283292,0.7563377,0.5464807,1.055677,214,80,209
2494.824,3.079687,-10.33816,2.442086,1.278504,0.7744472,0.5635249,1.075917,148,134,204
2494.828,3.083594,-10.42435,2.327164,1.225831,0.777643,0.5773733,1.087635,157,150,123
2494.832,3.0875,-10.42914,2.264915,1.240196,0.7680557,0.6061355,1.101483,235,64,107
2494.836,3.091406,-10.62547,2.260126,1.479617,0.757403,0.6221144,1.112136,275,65,190
2494.84,3.095312,-10.817,2.523489,1.489193,0.7446198,0.6476808,1.132376,163,158,202
2494.844,3.099219,-10.94629,2.686294,1.23062,0.7318367,0.6583334,1.14729,206,114,116
2494.848,3.103125,-11.066,2.590526,1.149217,0.7062703,0.7084008,1.16753,259,72,114
2494.852,3.107031,-11.16177,2.327164,1.249773,0.6988135,0.7424893,1.193096,223,57,217
2494.855,3.110937,-11.13304,2.202666,1.158794,0.7073356,0.7616641,1.217597,162,82,217
2494.859,3.114844,-11.09473,2.207454,1.04866,0.6870956,0.7861652,1.239968,170,173,150
2494.863,3.11875,-10.98939,2.274492,1.11091,0.6540724,0.8394284,1.252751,239,98,127
2494.867,3.122656,-10.89841,2.27928,1.35033,0.6263755,0.8649947,1.265534,237,56,243
2494.871,3.126562,-10.80264,2.375048,1.455675,0.6114618,0.9076053,1.282578,158,75,211
2494.875,3.130469,-10.7356,2.494758,1.364695,0.5848302,0.942759,1.313471,213,111,202
2494.879,3.134375,-10.65899,2.470816,1.455675,0.5592638,0.9917612,1.336907,240,29,256
2494.883,3.138281,-10.67335,2.231396,1.599327,0.5432849,1.037568,1.361408,238,61,121
2494.887,3.142187,-10.67335,1.996764,1.790863,0.5400891,1.063134,1.384844,246,20,227
2494.891,3.146094,-10.68772,1.82917,1.838747,0.5390238,1.107875,1.409345,191,140,214
2494.895,3.15,-10.74997,1.651999,1.877054,0.5454154,1.145159,1.444499,147,140,166
2494.898,3.153906,-10.78827,1.517924,1.819593,0.5539375,1.186705,1.474326,225,27,148
2494.902,3.157812,-10.82658,1.335965,1.805228,0.5784386,1.186705,1.498827,276,59,198
2494.906,3.161719,-10.90319,1.192312,1.776498,0.6061355,1.24849,1.53185,180,165,232
2494.91,3.165625,-11.07558,1.005565,1.656788,0.6679208,1.246359,1.569135,203,175,115
2494.914,3.169531,-11.18092,0.7996634,1.546654,0.7190535,1.285774,1.598962,252,121,137
2494.918,3.173437,-11.29106,0.5171476,1.613692,0.7819041,1.283644,1.626659,245,51,204
2494.922,3.177344,-11.38203,0.3064578,1.699883,0.8490158,1.323058,1.657551,198,37,197
2494.926,3.18125,-11.43471,0.1436521,1.790863,0.958738,1.324124,1.704423,114,152,162
2494.93,3.185156,-11.50653,0.1436521,1.757344,1.058873,1.38804,1.750229,159,153,201
2494.934,3.189062,-11.57357,0.2442086,1.790863,1.102549,1.40828,1.774731,253,74,150
2494.938,3.192969,-11.6454,0.5506664,2.049437,1.173921,1.433846,1.807754,138,93,163
2494.941,3.196875,-11.9758,1.005565,2.054225,1.235707,1.499892,1.848234,173,190,212
2494.945,3.200781,-12.49294,1.335965,2.221819,1.300688,1.564873,1.890844,165,159,104
2494.949,3.204687,-13.23036,1.388637,1.896208,1.355016,1.621332,1.919607,210,78,141
2494.953,3.208594,-14.37,1.053449,1.211466,1.411475,1.649029,1.945173,256,89,218
2494.957,3.2125,-15.66287,0.2873042,0.6847417,1.469,1.682053,1.965413,126,147,221
2494.961,3.216406,-17.38669,-0.7900865,0.5123592,1.604288,1.687379,1.983522,140,163,138
2494.965,3.220312,-18.33958,-1.412579,0.4357447,1.748099,1.658617,1.996306,226,162,157
2494.969,3.224219,-18.81843,-1.795651,0.6368576,1.89191,1.640507,2.010154,217,84,225
2494.973,3.228125,-18.80885,-2.063802,1.043872,2.01548,1.625594,2.014415,190,57,241
2494.977,3.232031,-18.20072,-2.48997,1.714248,2.148638,1.627724,2.006958,201,173,174
2494.98,3.235937,-17.47767,-3.035848,2.183512,2.217881,1.663943,1.980327,216,168,119
2494.984,3.239844,-16.78814,-3.849876,2.418144,2.275405,1.712945,1.940912,247,96,225
2494.988,3.24375,-16.53915,-5.137957,0.4836287,2.336125,1.775796,1.887649,153,111,215
2494.992,3.247656,-15.62935,-3.892972,4.544195,2.247708,1.846103,1.822667,203,172,206
2494.996,3.251562,-14.32211,-2.72939,4.027047,2.342516,1.855691,1.794971,196,166,133
2495,3.255469,-13.31655,-2.82037,3.136404,2.309493,1.901497,1.758752,223,92,170
2495.004,3.259375,-12.8808,-2.959233,3.122039,2.407498,1.994175,1.703358,267,84,195
2495.008,3.263281,-12.88559,-1.915361,2.978387,2.345712,2.057026,1.635181,151,216,185
2495.012,3.267187,-12.469,0.521936,2.327164,2.199771,2.102832,1.650095,170,153,125
2495.016,3.271094,-12.19606,2.604891,2.312799,2.180596,2.0762,1.694836,232,136,122
2495.02,3.275,-11.81299,4.141969,1.958457,2.15716,2.059156,1.75236,262,149,209
2495.023,3.278906,-11.48738,5.09965,0.9481039,2.204032,2.049569,1.816276,161,97,207
2495.027,3.282812,-11.22402,5.679046,0.641646,2.278601,2.019741,1.89191,187,166,174
2495.031,3.286719,-10.90798,6.090849,0.9672575,2.349973,2.011219,1.939847,215,146,163
2495.035,3.290625,-10.79785,6.402095,0.5267244,2.450108,1.992044,1.973935,260,125,246
2495.039,3.294531,-10.83137,6.325481,-0.2059013,2.49698,1.956891,1.99311,185,50,202
2495.043,3.298437,-11.13783,5.679046,-0.56982,2.493784,1.935585,1.992044,145,187,223
2495.047,3.302344,-11.53526,4.721366,-0.9050082,2.459696,1.91428,1.967543,249,178,166
2495.051,3.30625,-12.00932,4.161122,-1.728614,2.446912,1.899366,1.938781,184,88,185
2495.055,3.310156,-12.49294,3.610456,-2.197877,2.433064,1.883388,1.887649,227,141,231
2495.059,3.314062,-13.05319,3.131616,-2.542642,2.409628,1.81095,1.805623,172,193,194
2495.062,3.317969,-13.61822,2.892196,-2.63841,2.360626,1.721467,1.646899,160,155,162
2495.066,3.321875,-13.80497,3.069367,-2.844312,2.31695,1.626659,1.494566,248,87,152
2495.07,3.325781,-13.77624,3.442862,-3.040636,2.277535,1.505219,1.325189,246,117,184
2495.074,3.329687,-13.52245,3.964798,-3.241749,2.238121,1.401888,1.157942,155,198,254
2495.078,3.333594,-12.93827,4.55856,-3.366248,2.212554,1.26873,1.002414,190,169,190
2495.082,3.3375,-12.35887,5.238513,-3.332729,2.142247,1.10894,0.8106662,244,202,147
2495.086,3.341406,-11.62145,5.717354,-3.62961,2.099636,0.978978,0.6689861,236,86,229
2495.09,3.345312,-10.85531,6.344634,-3.792415,2.077266,0.84582,0.5336975,168,109,215
2495.094,3.349219,-10.14663,7.110779,-3.916914,2.101767,0.7137272,0.4037352,189,134,180
2495.098,3.353125,-9.141062,8.192958,-4.084508,2.227468,0.5209143,0.257794,212,167,148
2495.102,3.357031,-8.384494,8.781932,-4.031836,2.364887,0.3771036,0.165116,213,91,155
2495.105,3.360937,-7.575254,9.270349,-4.280833,2.523611,0.257794,0.08735168,188,140,247
2495.109,3.364844,-6.885724,9.212888,-4.821922,2.674879,0.1928129,0.0330232,196,180,220
2495.113,3.36875,-6.110003,8.623914,-5.966351,2.768622,0.1789644,0.006391587,165,184,165
2495.117,3.372656,-5.750872,8.221689,-6.976704,2.756904,0.2045308,0.03195793,235,104,173
2495.121,3.376562,-5.430049,8.197746,-7.445967,2.657835,0.273773,0.09693906,254,79,214
2495.125,3.380469,-5.319916,8.240842,-7.546524,2.47674,0.3536678,0.181095,174,198,211
2495.129,3.384375,-5.377377,8.437167,-7.417237,2.247708,0.4175837,0.2599245,205,188,129
2495.133,3.388281,-5.779603,8.073248,-6.804321,1.872735,0.4804343,0.3249057,259,227,167
2495.137,3.392187,-6.244078,7.594408,-6.244078,1.575526,0.5038701,0.3366236,270,130,198
2495.141,3.396094,-6.751649,7.067683,-5.765238,1.285774,0.4697816,0.3046656,138,98,253
2495.145,3.4,-7.07726,6.636727,-5.228936,1.016262,0.3845605,0.2343582,174,204,160
2495.148,3.403906,-7.49864,6.339846,-4.979939,0.6689861,0.2205097,0.0777643,288,186,191
2495.152,3.407812,-7.642292,6.344634,-5.042189,0.4186489,0.0777643,-0.07137272,255,139,239
2495.156,3.411719,-7.728483,6.555324,-5.204994,0.1576591,-0.08948221,-0.2364887,158,105,228
2495.16,3.415625,-7.565677,6.876147,-5.650316,-0.1171791,-0.2663161,-0.4037352,191,192,227
2495.164,3.419531,-7.139509,7.388506,-6.143521,-0.4814995,-0.4697816,-0.6157228,262,187,144
2495.168,3.423437,-6.584055,7.757213,-6.330269,-0.7392935,-0.5933523,-0.757403,258,109,153
2495.172,3.427344,-6.033388,8.025364,-6.330269,-0.9693906,-0.700944,-0.8767126,257,141,252
2495.176,3.43125,-5.425261,8.250419,-6.200982,-1.168595,-0.7925567,-0.9661948,202,222,236
2495.18,3.435156,-4.836287,8.240842,-6.105214,-1.334776,-0.8863,-1.040763,167,207,188
2495.184,3.439062,-4.367024,7.953538,-5.875371,-1.499892,-1.00774,-1.116397,280,135,122
2495.188,3.442969,-4.046201,7.560889,-5.693412,-1.589375,-1.125985,-1.168595,263,154,213
2495.191,3.446875,-3.744531,7.082049,-5.549759,-1.655421,-1.236772,-1.215467,191,101,249
2495.195,3.450781,-3.466804,6.363788,-5.463568,-1.706554,-1.34969,-1.26873,156,158,154
2495.199,3.454687,-3.055001,5.372589,-5.468357,-1.761947,-1.483913,-1.34969,228,196,165
2495.203,3.458594,-2.72939,4.697424,-5.511452,-1.794971,-1.560612,-1.417867,253,100,206
2495.207,3.4625,-2.595315,4.185065,-5.679046,-1.817341,-1.619202,-1.48924,147,114,203
2495.211,3.466406,-2.42772,3.849876,-5.784391,-1.838646,-1.650095,-1.564873,157,155,133
2495.215,3.470312,-2.360683,3.548207,-5.793968,-1.867409,-1.687379,-1.676726,236,192,163
2495.219,3.474219,-2.418144,3.356671,-5.870582,-1.89404,-1.706554,-1.764078,257,126,154
2495.223,3.478125,-2.475605,3.39019,-5.865794,-1.919607,-1.707619,-1.85356,245,108,216
2495.227,3.482031,-2.566584,3.490746,-5.832275,-1.940912,-1.700162,-1.948369,190,185,255
2495.23,3.485937,-2.724601,3.696647,-5.722142,-1.968609,-1.678857,-2.038916,151,167,135
2495.234,3.489844,-3.016694,4.050989,-5.540183,-2.026133,-1.69164,-2.161422,263,111,144
2495.238,3.49375,-3.203442,4.299986,-5.377377,-2.080461,-1.709749,-2.251969,264,131,195
2495.242,3.497656,-3.399766,4.43885,-5.109226,-2.142247,-1.712945,-2.338255,182,184,213
2495.246,3.501562,-3.505111,4.577714,-4.826711,-2.19551,-1.726794,-2.424542,189,201,136
2495.25,3.505469,-3.792415,4.630386,-4.52983,-2.253034,-1.774731,-2.534264,231,188,153
2495.254,3.509375,-3.98874,4.630386,-4.333505,-2.287123,-1.829059,-2.614159,251,67,225
2495.258,3.513281,-4.213795,4.52983,-4.304775,-2.310559,-1.900432,-2.692988,149,98,219
2495.262,3.517187,-4.34787,4.395754,-4.180276,-2.330799,-1.977131,-2.771818,194,184,158
2495.266,3.521094,-4.55856,4.276044,-4.194641,-2.336125,-2.048504,-2.844256,247,160,134
2495.27,3.525,-4.702212,4.146757,-4.232949,-2.320146,-2.162487,-2.941195,252,144,136
2495.273,3.528906,-4.764461,4.074931,-4.280833,-2.284992,-2.257295,-3.010437,164,143,189
2495.277,3.532812,-4.793192,4.036624,-4.352659,-2.228533,-2.354234,-3.076484,175,155,203
2495.281,3.536719,-4.802769,4.007894,-4.34787,-2.146508,-2.442651,-3.144661,157,191,128
2495.285,3.540625,-4.802769,3.974375,-4.371812,-2.012285,-2.550243,-3.227751,243,97,160
2495.289,3.544531,-4.793192,3.907337,-4.386177,-1.898301,-2.642921,-3.295928,251,63,215
2495.293,3.548437,-4.754884,3.830723,-4.419696,-1.785383,-2.71962,-3.366236,191,164,222
2495.297,3.552344,-4.76925,3.624821,-4.429273,-1.6714,-2.806972,-3.433347,203,178,119
2495.301,3.55625,-4.730942,3.438074,-4.486734,-1.518002,-2.89965,-3.518568,249,155,171
2495.305,3.560156,-4.711789,3.361459,-4.501099,-1.401888,-2.968892,-3.575027,259,102,224
2495.309,3.564062,-4.754884,3.351882,-4.548983,-1.276187,-3.017894,-3.625095,172,100,186
2495.312,3.567969,-4.845864,3.462016,-4.448427,-1.145159,-3.075418,-3.668771,190,184,114
2495.316,3.571875,-4.984728,3.500323,-4.362235,-1.012001,-3.1404,-3.708186,272,161,117
2495.32,3.575781,-5.391742,3.466804,-4.256891,-0.8447547,-3.184075,-3.750796,282,113,211
2495.324,3.579687,-5.784391,3.471592,-4.189853,-0.7275756,-3.225621,-3.777428,146,100,192
2495.328,3.583594,-6.244078,3.423708,-4.132392,-0.6178534,-3.275688,-3.798733,156,134,196
2495.332,3.5875,-6.770802,3.500323,-4.10845,-0.5177185,-3.311907,-3.810451,248,168,116
2495.336,3.591406,-7.536947,3.816357,-4.113238,-0.3984089,-3.374758,-3.817908,240,63,120
2495.34,3.595312,-8.111555,4.151546,-4.156334,-0.3238404,-3.424825,-3.814712,237,67,249
2495.344,3.599219,-8.643068,4.620809,-4.13718,-0.2641856,-3.48661,-3.80832,192,158,201
2495.348,3.603125,-9.02614,5.023035,-3.998317,-0.2311624,-3.533482,-3.796602,165,156,145
2495.352,3.607031,-9.495404,5.363012,-3.792415,-0.2151834,-3.598463,-3.773167,251,94,107
2495.355,3.610937,-9.768343,5.736507,-3.653552,-0.2173139,-3.629356,-3.7476,302,97,176
2495.359,3.614844,-9.964667,5.985504,-3.442862,-0.2364887,-3.673032,-3.719903,207,81,169
2495.363,3.61875,-10.06044,6.196194,-3.126827,-0.2748382,-3.717773,-3.692207,176,155,132
2495.367,3.622656,-10.10832,6.368576,-2.911349,-0.3238404,-3.757188,-3.659183,261,132,146
2495.371,3.626562,-10.16099,6.713341,-2.868254,-0.3994742,-3.802994,-3.60592,245,86,179
2495.375,3.630469,-10.29986,6.938396,-2.863465,-0.4729774,-3.823234,-3.56544,199,51,205
2495.379,3.634375,-10.32859,7.240066,-2.75812,-0.5496764,-3.843474,-3.513242,223,146,204
2495.383,3.638281,-10.49139,7.508216,-2.82037,-0.6221144,-3.849866,-3.448261,223,113,116
2495.387,3.642187,-11.00375,7.848193,-2.566584,-0.6913566,-3.837082,-3.331082,279,82,98
2495.391,3.646094,-11.28148,8.015787,-2.60968,-0.7233146,-3.827495,-3.222425,287,56,162
2495.395,3.65,-11.68849,8.149862,-2.542642,-0.7850999,-3.814712,-3.118029,232,122,178
2495.398,3.653906,-11.9327,8.255207,-2.451662,-0.8905611,-3.784885,-3.024286,231,134,116
2495.402,3.657812,-12.15297,8.178593,-2.255338,-1.00774,-3.723099,-2.943326,299,70,123
2495.406,3.661719,-12.25831,7.829039,-2.082955,-1.143029,-3.638943,-2.846387,313,50,188
2495.41,3.665625,-12.36366,7.560889,-1.872266,-1.238903,-3.562244,-2.776079,195,68,182
2495.414,3.669531,-12.4307,7.115567,-1.766921,-1.333711,-3.487676,-2.707902,172,108,67
2495.418,3.673437,-12.42112,6.502652,-1.73819,-1.413606,-3.382215,-2.643986,278,134,105
2495.422,3.677344,-12.469,5.803545,-1.489193,-1.482848,-3.252252,-2.569418,281,77,201
2495.426,3.68125,-12.36366,5.363012,-1.364695,-1.515871,-3.141465,-2.520416,221,69,186
2495.43,3.685156,-12.22001,5.042189,-1.383849,-1.52972,-3.039199,-2.477805,175,140,95
2495.434,3.689062,-12.02847,4.754884,-1.369483,-1.533981,-2.920955,-2.434129,293,164,96
2495.438,3.692969,-11.63103,4.458003,-1.321599,-1.513741,-2.75797,-2.373409,309,50,122
2495.441,3.696875,-11.18092,4.22816,-1.082179,-1.479652,-2.633334,-2.322276,199,80,213
2495.445,3.700781,-10.7787,4.074931,-0.9337386,-1.435976,-2.501241,-2.250904,198,96,177
2495.449,3.704687,-10.35253,3.974375,-0.6799533,-1.386974,-2.364887,-2.162487,208,130,109
2495.453,3.708594,-9.854534,3.96001,-0.344765,-1.336907,-2.208293,-2.047438,287,62,72
2495.457,3.7125,-9.26556,4.151546,0,-1.258077,-2.008023,-1.864213,290,72,182
2495.461,3.716406,-8.772355,4.074931,-0.01436521,-1.202684,-1.843973,-1.704423,229,125,192
2495.465,3.720312,-8.346187,4.050989,0.4213795,-1.156877,-1.688444,-1.542503,218,143,90
2495.469,3.724219,-7.967903,4.338293,0.6033388,-1.105744,-1.504153,-1.36993,301,142,85
2495.473,3.728125,-7.40766,4.960786,0.6991069,-1.054612,-1.276187,-1.107875,290,65,153
2495.477,3.732031,-7.062895,5.444415,0.6703765,-1.042894,-1.103614,-0.9044095,225,69,167
2495.48,3.735937,-6.698976,5.904101,0.4788403,-1.061003,-0.9193232,-0.6966829,215,128,66
2495.484,3.739844,-6.464344,6.325481,0.3351882,-1.101483,-0.7254451,-0.4889564,307,131,95
2495.488,3.74375,-6.330269,6.655881,0.1628057,-1.168595,-0.4857606,-0.2205097,265,66,139
2495.492,3.747656,-6.220136,6.737283,0.05267244,-1.215467,-0.3089267,-0.02024002,236,38,189
2495.496,3.751562,-6.306327,6.670246,-0.03351882,-1.253816,-0.1310275,0.1725728,210,125,174
2495.5,3.755469,-6.41646,6.378153,-0.1053449,-1.284709,0.02876214,0.3579289,265,105,104
2495.504,3.759375,-6.579266,6.019023,-0.1580173,-1.301753,0.1981392,0.5443501,301,33,88
2495.508,3.763281,-6.708553,5.621585,-0.344765,-1.308145,0.3984089,0.7797736,296,50,169
2495.512,3.767187,-6.74686,5.272032,-0.521936,-1.299623,0.5411543,0.9544769,201,123,166
2495.516,3.771094,-6.684611,5.114015,-0.641646,-1.276187,0.6796387,1.123854,193,102,99
2495.52,3.775,-6.588843,5.090073,-0.9241618,-1.244229,0.8181231,1.295362,295,90,108
2495.523,3.778906,-6.80911,4.721366,-1.010353,-1.184574,0.974717,1.514806,293,56,137
2495.527,3.782812,-7.16824,4.692635,-1.407791,-1.130246,1.080178,1.668204,183,64,178
2495.531,3.786719,-7.690176,4.697424,-1.359907,-1.059938,1.172856,1.817341,201,139,68
2495.535,3.790625,-8.647856,4.299986,0.1388637,-0.9853696,1.236772,1.964348,254,123,105
2495.539,3.794531,-10.95108,2.959233,2.149993,-0.8756474,1.192031,2.091114,280,28,167
2495.543,3.798437,-13.61822,-0.8331822,3.892972,-0.8404936,1.06633,2.058091,229,36,180
2495.547,3.802344,-16.97968,-5.449203,5.568913,-0.9129316,0.9139969,1.878061,218,109,123
2495.551,3.80625,-20.48,-11.7699,7.76679,-1.100418,0.7595335,1.576591,282,134,76
2495.555,3.810156,-22.82153,-17.15206,8.2169,-1.332646,0.5613944,1.096157,307,74,97
2495.559,3.814062,-23.67865,-18.21987,1.393425,-1.467934,0.2918825,0.5006743,281,87,168
2495.562,3.817969,-27.61951,-13.32613,-1.613692,-1.242098,0.6008091,0.4005394,173,129,188
2495.566,3.821875,-29.20447,-4.132392,1.082179,-0.9182579,0.6391587,0.7520767,219,129,105
2495.57,3.825781,-24.28199,4.668693,0.5889736,-0.7073356,0.2407498,1.227185,280,107,99
2495.574,3.829687,-14.66688,10.5297,-0.5746084,-0.4346279,0.1214401,1.505219,278,28,181
2495.578,3.833594,-11.066,9.514557,-1.398214,-0.2311624,0.3312972,1.514806,184,121,141
2495.582,3.8375,-10.68293,5.023035,-0.8571242,-0.06178534,0.4484763,1.475391,197,107,100
2495.586,3.841406,-9.380482,2.149993,0.3064578,-0.0330232,0.4719121,1.3678,297,121,119
2495.59,3.845312,-5.822698,2.011129,-0.2154781,-0.1864213,0.4921522,1.194161,271,85,161
2495.594,3.849219,-5.085284,2.882619,-2.03986,-0.4974785,0.7542072,1.165399,178,79,168
2495.598,3.853125,-5.827487,3.409343,-2.30801,-0.684965,1.010936,1.446629,207,128,146
2495.602,3.857031,-6.895301,4.367024,-1.561019,-0.7861652,1.105744,1.767274,261,128,142
2495.605,3.860937,-7.661445,5.947197,-1.532289,-0.793622,1.056742,1.937716,252,90,103
2495.609,3.864844,-8.140286,8.748413,-2.063802,-0.9757822,1.037568,1.99311,185,74,195
2495.613,3.86875,-8.264784,9.883264,-2.164358,-1.263404,1.057808,2.004828,200,158,206
2495.617,3.872656,-8.571242,10.02213,-1.862689,-1.564873,1.06846,1.973935,170,157,157
2495.621,3.876562,-9.184158,9.323021,-1.450886,-1.819472,1.042894,1.879126,272,74,95
2495.625,3.880469,-10.63026,7.728483,-0.6991069,-2.070874,0.9693906,1.679922,280,54,177
2495.629,3.884375,-11.80341,6.320692,-0.2873042,-2.177401,0.8777779,1.524393,205,86,180
2495.633,3.888281,-12.66054,5.066131,1.163582,-2.188053,0.7712515,1.384844,148,161,83
2495.637,3.892187,-12.8425,3.77805,2.044648,-2.079396,0.6072007,1.253816,271,44,86
2495.641,3.896094,-12.5935,2.523489,1.862689,-1.866343,0.4708469,1.110006,282,92,146
2495.645,3.9,-11.75074,2.030283,1.819593,-1.456216,0.3366236,0.9651296,206,63,188
2495.648,3.903906,-10.85531,2.245761,1.944092,-1.171791,0.2205097,0.9491506,156,120,107
2495.652,3.907812,-10.06522,2.264915,1.68073,-0.9278453,0.1608549,1.008805,255,137,65
2495.656,3.911719,-9.615114,1.853112,1.565808,-0.6711166,0.1193096,1.101483,238,45,151
2495.66,3.915625,-9.543288,0.7613561,1.47004,-0.3547331,0.09800433,1.181378,158,93,183
2495.664,3.919531,-9.634267,0.1197101,1.580173,-0.1672465,0.1118528,1.203749,194,112,189
2495.668,3.923437,-9.619902,-0.2106897,1.47004,0.003195793,0.1171791,1.211206,268,127,90
2495.672,3.927344,-9.342175,-0.3591302,1.508347,0.1725728,0.1342233,1.21014,254,32,93
2495.676,3.93125,-8.858546,-0.3016694,1.359907,0.3941478,0.1608549,1.1899,245,62,224
2495.68,3.935156,-8.446743,-0.3256114,1.134852,0.5592638,0.1928129,1.172856,189,137,157
2495.684,3.939062,-8.135497,-0.3830723,0.866701,0.7137272,0.2247708,1.14729,193,170,94
2495.688,3.942969,-7.905654,-0.1771709,0.6224924,0.829841,0.2716424,1.121723,240,78,146
2495.691,3.946875,-7.848193,0.2442086,0.5410896,0.90654,0.2918825,1.097222,244,78,187
2495.695,3.950781,-7.982268,0.9672575,0.5267244,0.9470201,0.3249057,1.058873,189,38,169
2495.699,3.954687,-8.283938,1.503559,0.4979939,0.9608685,0.3227751,1.022654,141,150,67
2495.703,3.958594,-8.686164,2.078167,0.5123592,0.9651296,0.3131877,0.9864349,227,109,106
2495.707,3.9625,-9.184158,2.829946,0.4836287,0.958738,0.2961435,0.9502159,253,56,179
2495.711,3.966406,-9.801862,3.873818,0.5123592,0.9235843,0.257794,0.9129316,182,72,168
2495.715,3.970312,-10.23761,4.683058,0.5650316,0.8777779,0.2311624,0.8926916,189,152,90
2495.719,3.974219,-10.53928,5.358223,0.7422025,0.7989483,0.2077266,0.8777779,236,142,132
2495.723,3.978125,-10.74997,5.870582,0.7278373,0.6838998,0.1906823,0.8692558,233,26,87
2495.727,3.982031,-10.97981,6.224924,0.9576807,0.5305017,0.1789644,0.8692558,166,10,194
2495.73,3.985937,-11.03727,6.38773,0.9864111,0.2908172,0.1704423,0.882039,169,133,203
2495.734,3.989844,-10.93192,6.378153,1.130063,0.09480853,0.1917476,0.8958874,162,143,120
2495.738,3.99375,-10.87446,6.076484,1.292869,-0.09374327,0.1747034,0.9108011,267,105,135
2495.742,3.997656,-10.72602,5.511452,1.417367,-0.2812298,0.201335,0.9214537,221,75,170
2495.746,4.001562,-10.54406,4.726154,1.604115,-0.4804343,0.181095,0.922519,171,162,175
2495.75,4.005469,-10.4052,4.007894,1.651999,-0.592287,0.1874865,0.9182579,180,155,105
2495.754,4.009375,-10.3238,3.280056,1.675941,-0.6657903,0.169377,0.9054748,252,164,95
2495.758,4.013281,-10.22803,2.5187,1.661576,-0.7020093,0.1736381,0.8926916,247,49,148
2495.762,4.017187,-10.14663,1.364695,1.613692,-0.6785734,0.1661813,0.8777779,181,79,162
2495.766,4.021094,-10.10353,0.4644751,1.599327,-0.6040049,0.1597897,0.8681905,190,109,52
2495.77,4.025,-10.07959,-0.4884171,1.61848,-0.4740427,0.1470065,0.8522115,270,154,97
2495.773,4.028906,-9.935937,-1.197101,1.671153,-0.2918825,0.1299623,0.8362326,261,95,173
2495.777,4.032812,-9.682152,-1.776498,1.723825,-0.07563377,0.09800433,0.8170578,181,76,153
2495.781,4.036719,-9.299079,-2.154781,1.786074,0.2386192,0.08628642,0.7957525,164,129,163
2495.785,4.040625,-8.963891,-2.30801,1.733402,0.4921522,0.06498113,0.7765778,255,105,99
2495.789,4.044531,-8.69574,-2.202666,1.651999,0.7275756,0.08202536,0.7659251,298,88,112
2495.793,4.048437,-8.346187,-1.742979,1.565808,0.9299759,0.07456851,0.7605988,228,94,188
2495.797,4.052344,-8.202535,-0.8858546,1.422156,1.12918,0.1065264,0.7605988,146,155,207
2495.801,4.05625,-8.178593,-0.2346318,1.225831,1.238903,0.1533981,0.753142,186,157,145
2495.805,4.060156,-8.451532,0.5985504,1.010353,1.314536,0.1672465,0.7382283,278,33,128
2495.809,4.064062,-8.585607,1.455675,0.7996634,1.359277,0.1917476,0.7329019,264,72,184
2495.812,4.067969,-9.059659,2.566584,0.5171476,1.370995,0.2034655,0.7360977,158,83,183
2495.816,4.071875,-9.394847,3.169923,0.3782839,1.355016,0.2151834,0.737163,181,149,122
2495.82,4.075781,-9.691728,3.706224,0.3782839,1.318797,0.2183792,0.741424,235,158,104
2495.824,4.079687,-10.02213,4.151546,0.4501099,1.271926,0.2183792,0.7424893,239,62,164
2495.828,4.083594,-10.27591,4.477157,0.4596867,1.21014,0.2098571,0.7435546,203,109,187
2495.832,4.0875,-10.55364,4.620809,0.5123592,1.102549,0.2066613,0.7403588,193,171,175
2495.836,4.091406,-10.63026,4.673482,0.6368576,1.008805,0.1981392,0.737163,262,115,94
2495.84,4.095312,-10.64941,4.673482,0.7469909,0.90654,0.1992044,0.7360977,243,56,125
2495.844,4.099219,-10.58716,4.58729,0.9097966,0.8032094,0.2002697,0.7360977,240,74,152
2495.848,4.103125,-10.3621,4.46758,1.13964,0.6785734,0.1960087,0.7329019,166,188,199
2495.852,4.107031,-10.1993,4.31914,1.249773,0.5933523,0.1970739,0.7297061,158,126,93
2495.855,4.110937,-10.12747,4.170699,1.264138,0.5177185,0.1938781,0.7233146,234,68,120
2495.859,4.114844,-9.959879,3.916914,1.316811,0.4538026,0.1885518,0.7105314,206,109,160
2495.863,4.11875,-9.825804,3.643975,1.249773,0.3802994,0.1938781,0.6956177,150,161,194
2495.867,4.122656,-9.801862,3.32794,1.235408,0.3408846,0.1896171,0.6838998,134,188,158
2495.871,4.126562,-9.701305,3.011906,1.374272,0.3195793,0.1864213,0.6753777,258,132,124
2495.875,4.130469,-9.557653,2.815581,1.326388,0.3174488,0.1757686,0.6711166,239,87,166
2495.879,4.134375,-9.495404,2.633622,1.292869,0.3270362,0.1683118,0.6679208,188,68,178
2495.883,4.138281,-9.370905,2.451662,1.154005,0.3472762,0.1715076,0.6657903,202,145,114
2495.887,4.142187,-9.255984,2.39899,1.067814,0.3632552,0.1608549,0.6657903,247,125,151
2495.891,4.146094,-9.227253,2.274492,0.9576807,0.3856257,0.1747034,0.6657903,246,77,145
2495.895,4.15,-9.217676,2.27928,0.8810662,0.4175837,0.1704423,0.6636597,192,61,179
2495.898,4.153906,-9.313444,2.245761,0.7900865,0.4644553,0.1768339,0.6593987,179,150,204
2495.902,4.157812,-9.428366,2.336741,0.7613561,0.5038701,0.1768339,0.6562029,204,138,138
2495.906,4.161719,-9.44752,2.446874,0.7469909,0.5368933,0.1768339,0.6540724,253,89,121
2495.91,4.165625,-9.586383,2.561796,0.6943185,0.5667207,0.1715076,0.6519418,270,93,187
2495.914,4.169531,-9.629479,2.686294,0.6751649,0.5901565,0.181095,0.6519418,168,150,192
2495.918,4.173437,-9.682152,2.743755,0.7086837,0.6167881,0.1832255,0.6508766,149,126,119
2495.922,4.177344,-9.768343,2.82037,0.6943185,0.6327671,0.181095,0.6466155,252,193,96
2495.926,4.18125,-9.816227,2.896984,0.6991069,0.6466155,0.1864213,0.6466155,225,82,173
2495.93,4.185156,-9.816227,2.87783,0.7086837,0.6530071,0.1736381,0.6423545,172,79,199
2495.934,4.189062,-9.940725,2.806004,0.6847417,0.6508766,0.1960087,0.6423545,132,122,104
2495.938,4.192969,-9.959879,2.782062,0.7230489,0.6434197,0.181095,0.6434197,243,156,132
2495.941,4.196875,-9.935937,2.667141,0.8810662,0.6295713,0.185356,0.6498113,237,103,104
2495.945,4.200781,-9.931148,2.585738,0.9816227,0.6210492,0.1800297,0.6572682,186,49,171
2495.949,4.204687,-9.753978,2.657564,1.029507,0.5997439,0.1938781,0.6711166,172,152,181
2495.953,4.208594,-9.792285,2.715025,1.029507,0.5795039,0.2024002,0.6838998,177,196,105
2495.957,4.2125,-9.734824,2.676717,1.039084,0.5550028,0.2130529,0.6966829,201,71,112
2495.961,4.216406,-9.725247,2.600103,1.144428,0.5273059,0.2290319,0.7094661,231,51,167
2495.965,4.220312,-9.758766,2.480393,1.264138,0.5060006,0.2354234,0.7233146,179,132,154
2495.969,4.224219,-9.830592,2.269703,1.264138,0.4825648,0.2439456,0.7350325,150,131,103
2495.973,4.228125,-9.878476,2.231396,1.321599,0.4729774,0.2514024,0.7478156,215,127,143
2495.977,4.232031,-9.931148,2.145205,1.398214,0.4814995,0.2567287,0.7595335,219,58,177
2495.98,4.235937,-9.950302,2.135628,1.513135,0.5123922,0.2524677,0.7691209,122,88,178
2495.984,4.239844,-10.08917,1.953669,1.613692,0.5667207,0.273773,0.7840346,182,145,130
2495.988,4.24375,-10.16578,1.795651,1.647211,0.6114618,0.2599245,0.7914915,217,178,115
2495.992,4.247656,-10.22803,1.61848,1.651999,0.6530071,0.278034,0.8032094,245,99,208
2495.996,4.251562,-10.27591,1.422156,1.790863,0.6881608,0.2844256,0.8245147,112,88,188
2496,4.255469,-10.29986,1.201889,1.781286,0.7510114,0.2908172,0.850081,157,161,196
2496.004,4.259375,-10.28549,1.072602,1.752556,0.793622,0.3131877,0.8756474,236,178,110
2496.008,4.263281,-10.34774,1.192312,1.795651,0.8479505,0.3153183,0.8980179,223,66,103
2496.012,4.267187,-10.31901,1.364695,1.661576,0.902279,0.3387541,0.9235843,224,32,196
2496.016,4.271094,-10.2807,1.546654,1.776498,0.9544769,0.3451457,0.942759,185,144,219
2496.02,4.275,-10.31422,1.493982,1.8579,1.010936,0.3771036,0.9736517,106,149,92
2496.023,4.278906,-10.25676,1.484405,1.900996,1.029045,0.4154531,0.994957,249,91,115
2496.027,4.282812,-10.1562,1.546654,1.896208,1.037568,0.44315,1.023719,294,85,171
2496.031,4.286719,-9.931148,1.556231,1.786074,1.032241,0.4783037,1.056742,139,85,157
2496.035,4.290625,-9.763554,1.608904,1.762132,1.00774,0.5454154,1.094027,188,153,88
2496.039,4.294531,-9.739612,1.699883,1.728614,0.9821738,0.5805691,1.118528,223,162,117
2496.043,4.298437,-9.763554,1.862689,1.752556,0.9459548,0.6391587,1.141963,258,126,211
2496.047,4.302344,-9.797073,1.944092,1.872266,0.9086706,0.6689861,1.160073,174,107,206
2496.051,4.30625,-9.955091,2.035071,2.001553,0.8692558,0.7275756,1.182444,146,169,201
2496.055,4.310156,-10.09874,1.891419,2.03986,0.8223841,0.773382,1.20801,198,121,113
2496.059,4.314062,-10.25197,1.867477,2.015918,0.7744472,0.8266452,1.232511,235,114,149
2496.062,4.317969,-10.25676,1.92015,2.054225,0.7329019,0.850081,1.262338,220,65,207
2496.066,4.321875,-10.3238,2.03986,2.006341,0.6838998,0.9118664,1.298557,188,153,206
2496.07,4.325781,-10.46266,2.221819,2.059013,0.6359629,0.9448896,1.348625,132,169,112
2496.074,4.329687,-10.53928,2.37026,2.035071,0.5997439,1.00774,1.386974,266,73,88
2496.078,4.333594,-10.60152,2.312799,2.197877,0.5795039,1.032241,1.421063,251,113,187
2496.082,4.3375,-10.64941,2.212242,2.154781,0.5656554,1.075917,1.455151,135,99,183
2496.086,4.341406,-10.71166,1.881843,2.193089,0.5464807,1.123854,1.494566,186,164,100
2496.09,4.345312,-10.80264,1.565808,2.130839,0.5454154,1.174987,1.522263,192,138,115
2496.094,4.349219,-10.81221,1.268927,2.116474,0.5422196,1.219728,1.546764,184,82,171
2496.098,4.353125,-10.7787,1.149217,2.06859,0.5475459,1.251686,1.57233,148,55,198
2496.102,4.357031,-10.87925,1.091756,2.054225,0.5550028,1.308145,1.598962,144,181,141
2496.105,4.360937,-11.03248,0.9911995,1.968034,0.5976133,1.331581,1.629855,241,180,114
2496.109,4.364844,-11.1905,0.9241618,1.862689,0.6412892,1.376322,1.655421,244,86,112
2496.113,4.36875,-11.30542,0.8475474,1.656788,0.6934871,1.392301,1.678857,141,66,203
2496.117,4.372656,-11.53048,0.7422025,1.412579,0.7446198,1.415736,1.708684,160,155,192
2496.121,4.376562,-11.81299,0.6655881,1.355118,0.8234494,1.454086,1.748099,159,157,121
2496.125,4.380469,-11.94707,0.5793968,1.436521,0.90654,1.461543,1.780057,222,111,103
2496.129,4.384375,-12.11945,0.4979939,1.690306,1.006675,1.494566,1.820537,250,91,201
2496.133,4.388281,-12.11466,0.6560113,1.896208,1.119593,1.508414,1.856756,175,162,211
2496.137,4.392187,-12.19606,0.9241618,2.30801,1.257012,1.584048,1.908954,158,196,156
2496.141,4.396094,-12.30141,1.312023,2.504335,1.360343,1.634116,1.948369,242,169,158
2496.145,4.4,-12.78983,1.359907,2.408567,1.456216,1.69377,1.979261,239,135,232
2496.148,4.403906,-13.73793,1.005565,1.805228,1.547829,1.766208,2.004828,112,86,214
2496.152,4.407812,-15.18403,0.1723825,0.9816227,1.661813,1.781122,2.021872,146,198,148
2496.156,4.411719,-17.40585,-1.517924,0.2442086,1.87167,1.802427,2.048504,231,184,120
2496.16,4.415625,-19.03869,-2.786851,0.3495534,2.084723,1.793905,2.078331,234,107,114
2496.164,4.419531,-20.20227,-3.591302,0.6847417,2.322276,1.771535,2.106028,131,122,204
2496.168,4.423437,-20.81519,-4.13718,1.355118,2.535329,1.755556,2.129464,167,159,183
2496.172,4.427344,-20.67633,-4.793192,2.796428,2.714294,1.785383,2.132659,164,192,72
2496.176,4.43125,-20.10172,-5.453991,3.457227,2.78034,1.843973,2.112419,224,96,150
2496.18,4.435156,-19.29248,-5.808333,3.701436,2.788862,1.904693,2.065548,247,73,215
2496.184,4.439062,-18.25339,-5.813122,3.859453,2.723881,1.984588,2.002697,175,178,224
2496.188,4.442969,-16.88391,-5.329493,3.572149,2.585397,2.087918,1.901497,138,198,124
2496.191,4.446875,-16.0603,-3.787627,3.260903,2.45863,2.161422,1.81095,258,169,123
2496.195,4.450781,-15.40908,-2.006341,2.753332,2.329733,2.224272,1.727859,233,110,217
2496.199,4.454687,-14.85842,-0.1532289,2.815581,2.194445,2.261556,1.668204,139,89,201
2496.203,4.458594,-14.2886,1.94888,2.135628,2.07407,2.281796,1.649029,192,188,140
2496.207,4.4625,-13.72356,3.801992,0.9720459,1.984588,2.289253,1.67353,208,192,160
2496.211,4.466406,-13.26388,4.91769,0.4644751,1.903628,2.279666,1.717206,238,140,209
2496.215,4.470312,-12.76588,5.60722,0.009576807,1.858886,2.280731,1.764078,164,119,192
2496.219,4.474219,-12.22479,5.717354,0.3112462,1.834385,2.291384,1.809884,177,174,168
2496.223,4.478125,-11.72201,6.344634,0.4453215,1.839712,2.290319,1.866343,158,215,176
2496.227,4.482031,-11.62145,6.263232,-0.3064578,1.85143,2.249838,1.901497,206,117,109
2496.23,4.485937,-11.66934,5.573701,-0.9528923,1.801362,2.217881,1.917476,227,129,212
2496.234,4.489844,-11.84651,4.821922,-1.417367,1.745968,2.208293,1.910019,130,203,202
2496.238,4.49375,-12.27747,4.314351,-1.637634,1.742773,2.182727,1.886583,137,214,149
2496.242,4.497656,-12.68448,3.696647,-1.977611,1.773665,2.147573,1.840777,224,127,125
2496.246,4.501562,-13.12501,3.256114,-2.106897,1.782187,2.107093,1.777926,210,133,204
2496.25,4.505469,-13.6278,3.169923,-2.432509,1.775796,2.021872,1.684183,170,167,212
2496.254,4.509375,-14.10185,3.20823,-2.75812,1.751295,1.929194,1.573396,188,191,149
2496.258,4.513281,-14.40352,3.663129,-3.05979,1.700162,1.784318,1.396562,229,220,155
2496.262,4.517187,-14.33169,4.252102,-3.08852,1.657551,1.643703,1.259143,246,136,207
2496.266,4.521094,-13.94862,4.759673,-3.203442,1.625594,1.498827,1.113201,145,138,209
2496.27,4.525,-13.44105,5.377377,-3.318364,1.611745,1.353951,0.9608685,122,224,221
2496.273,4.528906,-12.35887,6.344634,-3.62961,1.667139,1.139833,0.7627293,226,235,146
2496.277,4.532812,-11.62624,7.110779,-3.969586,1.755556,0.9821738,0.6317018,203,161,133
2496.281,4.536719,-10.77391,7.85777,-4.041412,1.868474,0.8372978,0.5241101,217,127,226
2496.285,4.540625,-9.921572,8.580819,-4.261679,2.01335,0.6743124,0.4335626,148,208,237
2496.289,4.544531,-8.963891,9.217676,-4.070143,2.15716,0.5390238,0.3621899,132,182,129
2496.293,4.548437,-7.671022,9.624691,-4.34787,2.315885,0.4282363,0.2886867,222,111,130
2496.297,4.552344,-6.828263,9.390059,-4.707,2.356365,0.4303668,0.2567287,250,135,218
2496.301,4.55625,-6.129156,8.935161,-4.999093,2.31695,0.5038701,0.257794,119,116,213
2496.305,4.560156,-5.688623,8.30788,-5.114015,2.206163,0.6125271,0.2929477,130,244,169
2496.309,4.564062,-5.731719,7.307103,-4.984728,1.956891,0.7137272,0.3632552,198,256,143
2496.312,4.567969,-6.133945,6.876147,-4.683058,1.758752,0.7350325,0.4122573,227,147,209
2496.316,4.571875,-6.713341,6.737283,-4.419696,1.5702,0.7126619,0.4346279,176,130,206
2496.32,4.575781,-7.364564,6.727707,-4.247314,1.376322,0.6412892,0.42291,157,232,150
2496.324,4.579687,-8.173804,6.651092,-3.907337,1.100418,0.4772385,0.3462109,206,201,133
2496.328,4.583594,-8.513781,6.727707,-3.74932,0.8969527,0.3036004,0.241815,256,127,162
2496.332,4.5875,-8.63828,6.722918,-3.648763,0.6934871,0.1203749,0.1065264,197,134,215
2496.336,4.591406,-8.571242,6.727707,-3.53863,0.495348,-0.0809601,-0.04900216,154,195,226
2496.34,4.595312,-8.327033,6.789956,-3.706224,0.3036004,-0.2684466,-0.2151834,160,207,122
2496.344,4.599219,-7.776367,6.919243,-4.055778,0.04580637,-0.4942827,-0.4303668,263,152,115
2496.348,4.603125,-7.254431,7.211335,-4.276044,-0.1438107,-0.6530071,-0.5826996,255,163,228
2496.352,4.607031,-6.708553,7.484274,-4.462792,-0.3249057,-0.7787083,-0.7105314,171,200,221
2496.355,4.610937,-6.124368,7.733271,-4.510676,-0.4857606,-0.8990832,-0.829841,153,228,119
2496.359,4.614844,-5.420473,8.149862,-4.371812,-0.6711166,-1.052481,-0.9629991,194,163,126
2496.363,4.61875,-4.91769,8.245631,-4.323928,-0.7808388,-1.163269,-1.050351,219,169,193
2496.367,4.622656,-4.477157,8.183381,-4.376601,-0.8607337,-1.281513,-1.12918,159,166,250
2496.371,4.626562,-4.103662,7.967903,-4.539406,-0.9171927,-1.384844,-1.201618,148,237,159
2496.375,4.630469,-3.744531,7.651869,-4.750096,-0.9544769,-1.498827,-1.26873,256,204,158
2496.379,4.634375,-3.385401,7.04853,-4.936844,-0.9938917,-1.652225,-1.350755,238,141,212
2496.383,4.638281,-3.122039,6.560113,-5.056554,-1.037568,-1.754491,-1.40828,182,110,206
2496.387,4.642187,-2.911349,6.157887,-5.214571,-1.098288,-1.838646,-1.460478,193,221,201
2496.391,4.646094,-2.748544,5.645528,-5.3678,-1.165399,-1.896171,-1.51161,205,194,152
2496.395,4.65,-2.657564,5.075708,-5.439626,-1.252751,-1.946238,-1.591505,218,139,160
2496.398,4.653906,-2.652775,4.692635,-5.444415,-1.308145,-1.965413,-1.660747,199,158,222
2496.402,4.657812,-2.686294,4.414908,-5.363012,-1.352886,-1.976066,-1.737446,165,222,225
2496.406,4.661719,-2.925714,4.299986,-5.315128,-1.391235,-2.003762,-1.820537,146,216,172
2496.41,4.665625,-3.1795,4.280833,-5.228936,-1.458347,-2.038916,-1.937716,199,122,166
2496.414,4.669531,-3.414132,4.371812,-5.090073,-1.514806,-2.054895,-2.031459,260,85,256
2496.418,4.673437,-3.591302,4.424485,-5.032612,-1.569135,-2.0762,-2.127333,200,143,233
2496.422,4.677344,-3.854665,4.52983,-4.955997,-1.617071,-2.106028,-2.227468,178,207,131
2496.426,4.68125,-4.151546,4.582502,-4.946421,-1.659682,-2.140116,-2.325472,248,218,145
2496.43,4.685156,-4.362235,4.548983,-4.855441,-1.706554,-2.199771,-2.453304,237,132,239
2496.434,4.689062,-4.553772,4.520253,-4.821922,-1.738512,-2.25623,-2.548113,167,85,233
2496.438,4.692969,-4.750096,4.434061,-4.793192,-1.755556,-2.318015,-2.637595,119,212,163
2496.441,4.696875,-4.884171,4.367024,-4.817134,-1.748099,-2.381931,-2.724946,231,221,141
2496.445,4.700781,-5.018247,4.376601,-4.850653,-1.704423,-2.482066,-2.84106,239,128,150
2496.449,4.704687,-5.090073,4.314351,-4.855441,-1.645834,-2.552374,-2.920955,248,141,219
2496.453,4.708594,-5.104438,4.271256,-4.865018,-1.567004,-2.646117,-3.00085,149,192,245
2496.457,4.7125,-5.123592,4.22816,-4.874595,-1.472195,-2.735599,-3.073288,125,170,188
2496.461,4.716406,-5.090073,4.127604,-4.955997,-1.334776,-2.842126,-3.170227,264,73,163
2496.465,4.720312,-4.989516,4.012682,-4.989516,-1.222924,-2.923086,-3.232012,252,116,246
2496.469,4.724219,-4.912902,3.907337,-5.018247,-1.10681,-2.999785,-3.292732,167,191,175
2496.473,4.728125,-4.745308,3.797204,-4.884171,-0.9832391,-3.071157,-3.354518,163,174,160
2496.477,4.732031,-4.616021,3.715801,-4.778827,-0.86606,-3.135073,-3.412042,231,175,177
2496.48,4.735937,-4.448427,3.572149,-4.788403,-0.7222493,-3.192598,-3.483415,217,118,216
2496.484,4.739844,-4.424485,3.41892,-4.740519,-0.6178534,-3.240534,-3.538808,195,85,186
2496.488,4.74375,-4.46758,3.347094,-4.683058,-0.5038701,-3.291667,-3.591006,173,151,134
2496.492,4.747656,-4.596867,3.394978,-4.592079,-0.3856257,-3.331082,-3.640009,225,157,157
2496.496,4.751562,-4.855441,3.380613,-4.405331,-0.2269013,-3.382215,-3.697533,223,103,129
2496.5,4.755469,-5.195418,3.438074,-4.309563,-0.1161138,-3.412042,-3.736948,181,91,211
2496.504,4.759375,-5.60722,3.572149,-4.175488,-0.01917476,-3.441869,-3.76784,141,158,186
2496.508,4.763281,-6.105214,3.653552,-4.074931,0.05645902,-3.472762,-3.78808,190,160,116
2496.512,4.767187,-6.789956,3.921702,-4.041412,0.1331581,-3.529221,-3.800864,215,87,150
2496.516,4.771094,-7.326257,4.247314,-3.964798,0.1661813,-3.572897,-3.804059,244,93,212
2496.52,4.775,-7.910442,4.52983,-3.940856,0.1821602,-3.636813,-3.799798,160,164,207
2496.523,4.778906,-8.379706,4.927267,-3.873818,0.1789644,-3.697533,-3.792341,167,170,146
2496.527,4.782812,-8.796297,5.363012,-3.921702,0.1523328,-3.766775,-3.781689,250,75,127
2496.531,4.786719,-9.222465,5.918467,-3.902549,0.07989483,-3.865845,-3.764645,267,79,203
2496.535,4.790625,-9.370905,6.339846,-3.883395,0.006391587,-3.938283,-3.746535,178,23,197
2496.539,4.794531,-9.500192,6.861782,-3.816357,-0.07882957,-3.999003,-3.72523,184,130,120
2496.543,4.798437,-9.457097,7.283161,-3.950433,-0.1736381,-4.06718,-3.708186,256,146,135
2496.547,4.802344,-9.442731,7.747637,-3.835511,-0.3227751,-4.120443,-3.679423,271,66,173
2496.551,4.80625,-9.509769,7.963115,-3.801992,-0.4484763,-4.153466,-3.654922,181,67,197
2496.555,4.810156,-9.514557,8.159439,-3.643975,-0.5699165,-4.159858,-3.62403,190,127,219
2496.559,4.814062,-9.586383,8.374917,-3.471592,-0.6817692,-4.159858,-3.586745,260,122,116
2496.562,4.817969,-9.950302,8.513781,-3.222595,-0.7808388,-4.151336,-3.544135,227,26,140
2496.566,4.821875,-10.33337,8.796297,-2.978387,-0.8863,-4.125769,-3.455718,241,39,223
2496.57,4.825781,-10.72602,8.815451,-2.949656,-0.9704559,-4.083159,-3.366236,203,161,192
2496.574,4.829687,-11.16177,8.781932,-2.892196,-1.070591,-4.033091,-3.266101,212,106,126
2496.578,4.833594,-11.54963,8.690952,-2.753332,-1.196292,-3.967045,-3.165966,272,32,110
2496.582,4.8375,-12.07635,8.18817,-2.686294,-1.384844,-3.841344,-3.040265,282,34,191
2496.586,4.841406,-12.47858,7.623138,-2.652775,-1.535046,-3.738013,-2.963566,194,139,215
2496.59,4.845312,-12.81377,6.971915,-2.643199,-1.666074,-3.630421,-2.898585,198,112,89
2496.594,4.849219,-12.99573,6.330269,-2.667141,-1.769404,-3.515373,-2.858104,255,123,129
2496.598,4.853125,-13.15853,5.554548,-2.671929,-1.856756,-3.376888,-2.831473,307,25,182
2496.602,4.857031,-13.11544,5.185841,-2.619257,-1.87167,-3.262905,-2.822951,184,36,186
2496.605,4.860937,-12.95742,5.00867,-2.537854,-1.846103,-3.16277,-2.813363,166,103,117
2496.609,4.864844,-12.72758,4.711789,-2.494758,-1.802427,-3.063701,-2.788862,284,132,140
2496.613,4.86875,-12.33014,4.505888,-2.293645,-1.744903,-2.958239,-2.745186,274,72,121
2496.617,4.872656,-11.66455,4.285621,-1.996764,-1.665008,-2.79845,-2.651443,223,35,177
2496.621,4.876562,-11.13304,4.209007,-1.690306,-1.601092,-2.67914,-2.549178,201,141,227
2496.625,4.880469,-10.66856,4.031836,-1.383849,-1.540372,-2.551308,-2.428803,199,141,156
2496.629,4.884375,-10.1993,3.878607,-1.101333,-1.467934,-2.406432,-2.29458,300,35,106
2496.633,4.888281,-9.576807,3.873818,-0.6224924,-1.376322,-2.214685,-2.103897,293,53,197
2496.637,4.892187,-9.107543,3.96001,-0.1101333,-1.310275,-2.059156,-1.948369,198,135,168
2496.641,4.896094,-8.719682,4.050989,-0.3639187,-1.262338,-1.888714,-1.777926,195,98,97
2496.645,4.9,-8.374917,4.113238,0.1197101,-1.243164,-1.708684,-1.606419,290,147,126
2496.648,4.903906,-7.97748,4.525041,0.2346318,-1.22825,-1.466869,-1.370995,278,54,223
2496.652,4.907812,-7.685387,4.960786,0.2154781,-1.23038,-1.276187,-1.177117,181,47,167
2496.656,4.911719,-7.374141,5.358223,0.248997,-1.254882,-1.089766,-0.974717,190,167,107
2496.66,4.915625,-7.096414,5.865794,0.3256114,-1.2911,-0.9012137,-0.7723167,328,105,130
2496.664,4.919531,-6.818686,6.224924,0.4740519,-1.320928,-0.7073356,-0.5613944,259,59,174
2496.668,4.923437,-6.402095,6.502652,0.545878,-1.34969,-0.4506069,-0.2854909,204,53,181
2496.672,4.927344,-6.224924,6.430826,0.5123592,-1.353951,-0.2673814,-0.08309063,227,139,170
2496.676,4.93125,-5.966351,6.258443,0.4261679,-1.352886,-0.08522115,0.112918,178,103,91
2496.68,4.935156,-5.870582,5.956774,0.3064578,-1.336907,0.09906959,0.3078614,212,43,97
2496.684,4.939062,-5.837064,5.363012,0.1819593,-1.30921,0.3238404,0.5677859,288,53,161
2496.688,4.942969,-5.832275,4.979939,0.09576807,-1.282578,0.499609,0.7669904,197,114,189
2496.691,4.946875,-5.81791,4.687847,-0.05267244,-1.249555,0.6508766,0.9629991,207,117,101
2496.695,4.950781,-5.884948,4.544195,-0.1484405,-1.201618,0.809601,1.162203,248,70,98
2496.699,4.954687,-5.928043,4.577714,-0.593762,-1.150486,0.9608685,1.356082,308,48,177
2496.703,4.958594,-6.066907,4.625598,-0.7613561,-1.06633,1.146225,1.606419,176,70,145
2496.707,4.9625,-6.29675,4.855441,-1.015142,-0.999218,1.271926,1.781122,191,111,122
2496.711,4.966406,-6.646304,4.754884,-1.37906,-0.9331716,1.385909,1.945173,283,128,118
2496.715,4.970312,-7.417237,4.180276,-0.1580173,-0.8724516,1.483913,2.085788,313,47,187
2496.719,4.974219,-9.318233,2.681506,-0.07661445,-0.757403,1.496697,2.213619,203,55,170
2496.723,4.978125,-11.20486,0.7182605,2.480393,-0.7084008,1.451955,2.247708,220,102,172
2496.727,4.982031,-14.02523,-2.178724,5.281609,-0.6679208,1.333711,2.205097,277,120,97
2496.73,4.985937,-17.31965,-6.402095,7.331045,-0.7094661,1.155812,2.044242,248,22,120
2496.734,4.989844,-21.27966,-13.82891,9.251195,-0.9480853,0.850081,1.591505,257,25,159
2496.738,4.99375,-23.52543,-18.52154,8.791508,-1.183509,0.5848302,1.102549,190,133,187
2496.742,4.997656,-25.55571,-18.73702,2.355894,-1.265534,0.4101268,0.6679208,231,106,90
2496.746,5.001562,-31.89555,-14.21198,-0.9481039,-1.0887,0.7115966,0.5305017,228,60,116
2496.75,5.005469,-33.61938,-6.545747,-0.1340753,-0.8852347,0.757403,0.8181231,254,14,198
2496.754,5.009375,-25.44558,4.979939,-1.163582,-0.6412892,0.205596,1.399757,224,133,177
2496.758,5.013281,-15.31331,9.983821,-0.8475474,-0.4378237,0.112918,1.626659,220,140,95
2496.762,5.017187,-9.562441,10.42914,-1.278504,-0.2130529,0.3526025,1.635181,253,144,155
2496.766,5.021094,-8.810662,6.229713,0.3160346,0.03195793,0.5816344,1.559547,253,57,178
2496.77,5.025,-7.038953,2.355894,2.408567,0.07456851,0.6838998,1.373126,162,70,170
2496.773,5.028906,-4.525041,3.529053,1.034295,-0.1555286,0.7691209,1.227185,191,159,134
2496.777,5.032812,-3.77805,5.525817,-1.225831,-0.4559332,1.043959,1.343298,278,140,137
2496.781,5.036719,-4.946421,6.665457,-2.312799,-0.7265103,1.355016,1.737446,248,45,138
2496.785,5.040625,-6.943185,7.297527,-1.929727,-0.9267801,1.453021,2.179531,202,67,186
2496.789,5.044531,-7.809886,8.264784,-2.542642,-0.9491506,1.32945,2.257295,189,130,189
2496.793,5.048437,-7.924807,9.734824,-3.423708,-1.131311,1.236772,2.230664,192,157,102
2496.797,5.052344,-7.814674,10.8601,-3.56736,-1.490305,1.244229,2.205097,267,72,113
2496.801,5.05625,-7.714118,11.36288,-3.040636,-1.901497,1.260208,2.169944,225,55,164
2496.805,5.060156,-8.480262,10.817,-1.963245,-2.3553,1.213336,2.05596,186,131,180
2496.809,5.064062,-9.797073,9.562441,-1.23062,-2.59818,1.140898,1.91215,162,148,132
2496.812,5.067969,-11.29584,8.049306,-0.4548983,-2.75797,1.049285,1.739577,228,42,135
2496.816,5.071875,-12.46421,6.406884,0.07182605,-2.827212,0.9108011,1.561678,238,58,178
2496.82,5.075781,-12.66533,4.525041,1.383849,-2.73986,0.6796387,1.330515,191,61,187
2496.824,5.079687,-12.3062,2.901772,1.192312,-2.533199,0.5123922,1.165399,191,164,125
2496.828,5.083594,-11.82736,1.570596,0.4070143,-2.21575,0.4090615,1.003479,253,114,153
2496.832,5.0875,-11.33415,0.9050082,0.4357447,-1.842907,0.294013,0.8916263,214,74,174
2496.836,5.091406,-10.46266,0.7613561,0.6033388,-1.385909,0.1533981,0.8990832,178,69,185
2496.84,5.095312,-9.964667,0.3591302,0.3351882,-1.047155,0.09374327,1.00774,178,120,180
2496.844,5.099219,-9.744401,-0.3399766,-0.03351882,-0.6508766,0.04580637,1.141963,238,104,149
2496.848,5.103125,-9.811438,-0.8523358,0.3687071,-0.2567287,0.03728426,1.251686,250,67,138
2496.852,5.107031,-9.816227,-1.029507,0.7565677,0.08735168,0.03195793,1.32945,208,72,178
2496.855,5.110937,-9.528923,-1.005565,0.8619126,0.4942827,0.06498113,1.376322,181,117,191
2496.859,5.114844,-9.179369,-0.8714894,0.794875,0.7925567,0.1054612,1.365669,210,166,96
2496.863,5.11875,-8.935161,-0.5267244,0.5123592,1.04609,0.1470065,1.327319,241,66,133
2496.867,5.122656,-8.532935,-0.04788403,-0.03830723,1.24849,0.1864213,1.293231,222,59,159
2496.871,5.126562,-8.082825,0.6033388,-0.4836287,1.43065,0.2556635,1.238903,183,61,191
2496.875,5.130469,-7.97748,0.8044518,-0.5171476,1.493501,0.2897519,1.196292,173,112,116
2496.879,5.134375,-7.996634,1.029507,-0.4118027,1.503088,0.3217099,1.143029,225,136,57
2496.883,5.138281,-8.149862,1.321599,-0.3160346,1.492435,0.3121225,1.078048,235,66,183
2496.887,5.142187,-8.437167,1.805228,-0.1723825,1.481783,0.3163835,1.017328,155,50,183
2496.891,5.146094,-8.791508,2.863465,0.1867477,1.457282,0.2876214,0.9406285,155,141,110
2496.895,5.15,-9.131485,3.835511,0.2059013,1.423193,0.2759035,0.9033442,232,119,136
2496.898,5.153906,-9.56723,4.884171,0.344765,1.370995,0.2641856,0.8735168,262,50,110
2496.902,5.157812,-10.10353,5.870582,0.4309563,1.292166,0.2460761,0.8522115,166,69,184
2496.906,5.161719,-10.73081,7.053318,0.5410896,1.117462,0.2183792,0.8394284,199,137,205
2496.91,5.165625,-11.08037,7.694964,0.6607997,0.9257148,0.2300971,0.850081,165,140,75
2496.914,5.169531,-11.28627,8.09719,0.7709329,0.6934871,0.2173139,0.8671253,255,58,133
2496.918,5.173437,-11.44428,8.303091,0.8858546,0.4239752,0.241815,0.9001484,235,33,164
2496.922,5.177344,-11.47301,7.85777,1.029507,0.03941478,0.2545982,0.9321064,189,99,185
2496.926,5.18125,-11.3533,7.115567,1.393425,-0.2354234,0.2684466,0.9491506,167,153,120
2496.93,5.185156,-11.21444,6.301539,1.642422,-0.4857606,0.2652508,0.9534117,251,85,104
2496.934,5.189062,-10.9846,5.530606,1.838747,-0.7030745,0.2609898,0.9448896,249,43,184
2496.938,5.192969,-10.79306,4.683058,2.078167,-0.8713863,0.2535329,0.9331716,121,36,187
2496.941,5.196875,-10.56801,3.466804,2.25055,-1.002414,0.2279666,0.9108011,162,120,112
2496.945,5.200781,-10.43393,2.466028,2.317587,-1.031176,0.2119876,0.8873653,212,170,91
2496.949,5.204687,-10.29507,1.455675,2.317587,-1.00561,0.1928129,0.8681905,230,97,215
2496.953,5.208594,-10.17057,0.3112462,2.288857,-0.9214537,0.1725728,0.8511463,173,87,138
2496.957,5.2125,-9.89763,-1.273715,2.327164,-0.7190535,0.1416802,0.8266452,142,113,195
2496.961,5.216406,-9.471462,-2.221819,2.322376,-0.5070659,0.1075917,0.8032094,173,173,123
2496.965,5.220312,-8.983045,-2.906561,2.260126,-0.2588593,0.09161274,0.7829694,249,51,113
2496.969,5.224219,-8.355764,-3.112462,2.097321,0.007456851,0.07669904,0.7701862,213,74,154
2496.973,5.228125,-7.599196,-2.762909,1.623269,0.3387541,0.09374327,0.7627293,158,110,193
2496.977,5.232031,-7.192182,-2.059013,1.37906,0.5539375,0.1342233,0.7627293,160,119,125
2496.98,5.235937,-7.158663,-1.235408,1.067814,0.737163,0.165116,0.7595335,256,78,113
2496.984,5.239844,-7.426814,-0.3112462,0.7422025,0.8756474,0.201335,0.7542072,166,69,197
2496.988,5.24375,-7.829039,0.6799533,0.5075708,0.9725864,0.2290319,0.7499462,149,60,191
2496.992,5.247656,-8.441955,1.843535,0.2681506,1.034372,0.2556635,0.7520767,195,131,89
2496.996,5.251562,-8.987833,2.542642,0.1867477,1.035437,0.2748382,0.7595335,218,133,107
2497,5.255469,-9.514557,3.141193,0.1149217,1.014132,0.2801645,0.7659251,243,66,162
2497.004,5.259375,-10.07001,3.576937,0.1484405,0.9779128,0.2812298,0.7669904,138,55,156
2497.008,5.263281,-10.53449,4.13718,0.2537854,0.9086706,0.2599245,0.7712515,161,164,227
2497.012,5.267187,-10.79306,4.429273,0.3160346,0.8351673,0.2407498,0.7680557,221,148,157
2497.016,5.271094,-10.96066,4.630386,0.3926491,0.7435546,0.2300971,0.7659251,240,59,142
2497.02,5.275,-10.99896,4.826711,0.4932055,0.6434197,0.2247708,0.7659251,266,68,211
2497.023,5.278906,-10.88883,4.908113,0.6129156,0.5113269,0.2119876,0.7648599,137,95,188
2497.027,5.282812,-10.78827,4.922479,0.6512229,0.4143879,0.2119876,0.773382,152,107,128
2497.031,5.286719,-10.49618,4.793192,0.7134721,0.3185141,0.2162487,0.777643,212,91,105
2497.035,5.290625,-10.26634,4.52983,0.6272808,0.1949434,0.2141182,0.7691209,125,133,88
2497.039,5.294531,-10.14663,4.232949,0.6320692,0.1395496,0.2183792,0.7616641,156,89,162
2497.043,5.298437,-9.983821,3.696647,0.7086837,0.05219796,0.2109224,0.7478156,128,125,85
2497.047,5.302344,-9.854534,3.193865,0.8331822,0.008522115,0.2130529,0.737163,235,159,120
2497.051,5.30625,-9.706094,2.734178,0.866701,-0.003195793,0.1992044,0.7275756,237,115,179
2497.055,5.310156,-9.591172,2.394202,0.8858546,-0.002130529,0.201335,0.7201188,158,66,210
2497.059,5.314062,-9.524134,1.963245,0.8379706,0.01704423,0.2098571,0.7105314,158,142,107
2497.062,5.317969,-9.409213,1.728614,0.8331822,0.04154531,0.2130529,0.7105314,282,147,122
2497.066,5.321875,-9.404424,1.49877,0.7900865,0.06817692,0.2162487,0.7158577,242,49,157
2497.07,5.325781,-9.423578,1.369483,0.8954314,0.1001349,0.2258361,0.7275756,140,91,197
2497.074,5.329687,-9.423578,1.455675,0.9672575,0.1395496,0.2258361,0.7382283,141,177,197
