t_native_s,t_opt_s,ax,ay,az,gx,gy,gz,mx,my,mz
2492.676,0,-9.811438,-0.8954314,-0.1388637,-0.02663161,0.01597897,0.01597897,982,-629,523
2492.68,0.00390625,-9.782708,-0.9097966,-0.1388637,-0.02343582,0.01278317,0.01384844,935,-649,506
2492.684,0.0078125,-9.734824,-0.9241618,-0.1388637,-0.02450108,0.01704423,0.01384844,912,-628,507
2492.688,0.01171875,-9.801862,-0.9097966,-0.1819593,-0.02237055,0.01704423,0.01278317,941,-629,488
2492.691,0.015625,-9.744401,-0.9433155,-0.1436521,-0.02130529,0.01597897,0.01384844,918,-629,500
2492.695,0.01953125,-9.744401,-0.8714894,-0.1484405,-0.0181095,0.0149137,0.01065264,943,-711,491
2492.699,0.0234375,-9.787496,-0.9385271,-0.1436521,-0.0181095,0.01065264,0.008522115,907,-644,507
2492.703,0.02734375,-9.753978,-0.890643,-0.1628057,-0.01384844,0.01278317,0.007456851,883,-616,534
2492.707,0.03125,-9.77792,-0.9720459,-0.1819593,-0.01278317,0.01384844,0.00958738,912,-630,470
2492.711,0.03515625,-9.753978,-0.9768343,-0.1580173,-0.01171791,0.01278317,0.00958738,899,-626,520
2492.715,0.0390625,-9.753978,-0.9433155,-0.1915361,-0.01171791,0.01278317,0.00958738,917,-620,506
2492.719,0.04296875,-9.821015,-0.9481039,-0.1771709,-0.008522115,0.01065264,0.007456851,941,-607,518
2492.723,0.046875,-9.787496,-0.914585,-0.1723825,-0.008522115,0.00958738,0.006391587,928,-621,497
2492.727,0.05078125,-9.758766,-0.9337386,-0.1244985,-0.008522115,0.00958738,0.006391587,923,-620,552
2492.73,0.0546875,-9.758766,-0.8858546,-0.1675941,-0.00958738,0.01065264,0.006391587,908,-624,511
2492.734,0.05859375,-9.821015,-0.8954314,-0.1628057,-0.01065264,0.01065264,0.008522115,901,-619,476
2492.738,0.0625,-9.77792,-0.8714894,-0.2059013,-0.01171791,0.00958738,0.005326322,917,-609,514
2492.742,0.06640625,-9.792285,-0.8044518,-0.1867477,-0.01384844,0.01171791,0.006391587,911,-624,536
2492.746,0.0703125,-9.811438,-0.9289502,-0.1436521,-0.01597897,0.01384844,0.004261058,920,-631,513
2492.75,0.07421875,-9.797073,-0.8619126,-0.1963245,-0.0181095,0.01278317,0.005326322,887,-608,511
2492.754,0.078125,-9.77792,-0.8523358,-0.1484405,-0.02024002,0.0149137,0.005326322,902,-673,480
2492.758,0.08203125,-9.744401,-0.8858546,-0.1915361,-0.02237055,0.0149137,0.006391587,878,-607,481
2492.762,0.0859375,-9.753978,-0.8714894,-0.248997,-0.02663161,0.0149137,0.006391587,869,-625,536
2492.766,0.08984375,-9.792285,-0.9002198,-0.1915361,-0.02663161,0.0149137,0.005326322,912,-626,512
2492.77,0.09375,-9.739612,-0.8810662,-0.1723825,-0.02556635,0.01384844,0.004261058,931,-633,520
2492.773,0.09765625,-9.753978,-0.866701,-0.1819593,-0.02769688,0.0149137,0.006391587,885,-608,512
2492.777,0.1015625,-9.77792,-0.9097966,-0.1532289,-0.02450108,0.01384844,0.003195793,927,-668,477
2492.781,0.1054688,-9.792285,-0.8810662,-0.2011129,-0.02556635,0.01171791,0.005326322,899,-650,485
2492.785,0.109375,-9.782708,-0.914585,-0.1819593,-0.02450108,0.01278317,0.005326322,939,-643,535
2492.789,0.1132812,-9.749189,-0.9241618,-0.2011129,-0.02343582,0.0149137,0.005326322,899,-651,477
2492.793,0.1171875,-9.773131,-0.9385271,-0.1963245,-0.02343582,0.0149137,0.004261058,920,-666,552
2492.797,0.1210938,-9.768343,-1.000776,-0.2202666,-0.02237055,0.01384844,0.004261058,906,-634,506
2492.801,0.125,-9.816227,-0.9433155,-0.2011129,-0.02130529,0.01278317,0.005326322,945,-664,519
2492.805,0.1289062,-9.797073,-0.9481039,-0.1771709,-0.02024002,0.01384844,0.004261058,922,-623,515
2492.809,0.1328125,-9.773131,-0.9337386,-0.2442086,-0.01597897,0.01384844,0.004261058,927,-620,489
2492.812,0.1367188,-9.782708,-0.9433155,-0.2154781,-0.01704423,0.01384844,0.004261058,889,-671,513
2492.816,0.140625,-9.787496,-0.9002198,-0.1867477,-0.01704423,0.0149137,0.004261058,902,-642,482
2492.82,0.1445312,-9.787496,-0.9337386,-0.1819593,-0.01278317,0.01384844,0.003195793,922,-630,511
2492.824,0.1484375,-9.749189,-0.9911995,-0.1915361,-0.01171791,0.01171791,0.002130529,930,-617,520
2492.828,0.1523438,-9.797073,-0.9481039,-0.2059013,-0.00958738,0.01171791,0.002130529,937,-655,525
2492.832,0.15625,-9.811438,-0.890643,-0.1580173,-0.007456851,0.01384844,0.002130529,914,-609,511
2492.836,0.1601562,-9.77792,-0.9193734,-0.1532289,-0.006391587,0.01171791,0.001065264,915,-645,475
2492.84,0.1640625,-9.825804,-0.9289502,-0.1867477,-0.003195793,0.00958738,0,880,-638,516
2492.844,0.1679688,-9.80665,-0.9816227,-0.2011129,-0.001065264,0.00958738,0.001065264,913,-637,544
2492.848,0.171875,-9.763554,-0.9337386,-0.1388637,0.001065264,0.006391587,0,909,-611,523
2492.852,0.1757812,-9.816227,-0.9193734,-0.1628057,0,0.00958738,0.001065264,904,-635,508
2492.855,0.1796875,-9.782708,-0.9241618,-0.1675941,0.002130529,0.01065264,0,943,-634,500
2492.859,0.1835938,-9.797073,-0.9241618,-0.1819593,0.002130529,0.00958738,0.002130529,878,-643,517
2492.863,0.1875,-9.744401,-0.8858546,-0.1771709,0.004261058,0.01065264,0.001065264,897,-657,537
2492.867,0.1914062,-9.782708,-0.914585,-0.1580173,0.006391587,0.01065264,0.001065264,894,-653,522
2492.871,0.1953125,-9.811438,-0.9097966,-0.1723825,0.007456851,0.01065264,0.001065264,906,-621,545
2492.875,0.1992188,-9.787496,-0.890643,-0.1628057,0.008522115,0.01171791,0.001065264,880,-617,491
2492.879,0.203125,-9.821015,-0.890643,-0.1628057,0.01065264,0.01065264,0,922,-631,524
2492.883,0.2070312,-9.744401,-0.9097966,-0.1675941,0.01171791,0.00958738,0.001065264,907,-625,502
2492.887,0.2109375,-9.758766,-0.8619126,-0.1484405,0.01065264,0.01065264,0,928,-645,530
2492.891,0.2148438,-9.753978,-0.8523358,-0.1675941,0.01278317,0.01065264,0,894,-622,500
2492.895,0.21875,-9.782708,-0.866701,-0.1675941,0.01171791,0.00958738,0.002130529,887,-625,511
2492.898,0.2226562,-9.753978,-0.8810662,-0.1244985,0.01065264,0.007456851,0.003195793,904,-679,535
2492.902,0.2265625,-9.797073,-0.8858546,-0.1388637,0.01171791,0.01065264,0.002130529,935,-643,506
2492.906,0.2304688,-9.744401,-0.842759,-0.2346318,0.01171791,0.01171791,0,917,-657,491
2492.91,0.234375,-9.749189,-0.842759,-0.1675941,0.00958738,0.01065264,0.002130529,891,-637,514
2492.914,0.2382812,-9.749189,-0.818817,-0.2346318,0.007456851,0.01278317,0.003195793,864,-624,479
2492.918,0.2421875,-9.773131,-0.818817,-0.1819593,0.008522115,0.008522115,0.001065264,940,-657,546
2492.922,0.2460938,-9.768343,-0.842759,-0.1628057,0.006391587,0.00958738,-0.001065264,953,-645,520
2492.926,0.25,-9.739612,-0.8475474,-0.1580173,0.003195793,0.01171791,0.002130529,923,-616,508
2492.93,0.2539062,-9.787496,-0.8523358,-0.1580173,0.001065264,0.007456851,-0.002130529,878,-599,518
2492.934,0.2578125,-9.734824,-0.8379706,-0.1819593,-0.003195793,0.007456851,-0.001065264,868,-628,522
2492.938,0.2617188,-9.720459,-0.8283938,-0.1340753,-0.006391587,0.008522115,-0.001065264,951,-634,494
2492.941,0.265625,-9.730036,-0.8523358,-0.1580173,-0.01171791,0.007456851,0,899,-635,500
2492.945,0.2695312,-9.787496,-0.8571242,-0.1292869,-0.01384844,0.007456851,-0.002130529,922,-645,521
2492.949,0.2734375,-9.763554,-0.8619126,-0.1340753,-0.0149137,0.006391587,0.001065264,921,-603,504
2492.953,0.2773438,-9.725247,-0.8092402,-0.1197101,-0.0149137,0.007456851,0.001065264,908,-633,527
2492.957,0.28125,-9.758766,-0.8379706,-0.07182605,-0.01065264,0.005326322,-0.001065264,911,-656,532
2492.961,0.2851562,-9.744401,-0.8571242,-0.1532289,-0.00958738,0.006391587,-0.001065264,914,-604,529
2492.965,0.2890625,-9.753978,-0.8283938,-0.1436521,-0.003195793,0.006391587,-0.002130529,883,-634,504
2492.969,0.2929688,-9.744401,-0.8379706,-0.1628057,0,0.004261058,-0.004261058,885,-641,524
2492.973,0.296875,-9.706094,-0.8475474,-0.1819593,0.003195793,0.003195793,-0.005326322,919,-633,494
2492.977,0.3007812,-9.744401,-0.842759,-0.1819593,0.005326322,0,-0.007456851,944,-616,548
2492.98,0.3046875,-9.768343,-0.8092402,-0.1053449,0.007456851,0.001065264,-0.007456851,896,-631,503
2492.984,0.3085938,-9.710882,-0.8523358,-0.1149217,0.008522115,0,-0.005326322,950,-611,504
2492.988,0.3125,-9.734824,-0.7661445,-0.1101333,0.00958738,-0.003195793,-0.008522115,961,-637,498
2492.992,0.3164062,-9.739612,-0.7996634,-0.09576807,0.01278317,-0.007456851,-0.00958738,925,-675,493
2492.996,0.3203125,-9.77792,-0.7900865,-0.08619126,0.01065264,-0.01065264,-0.01065264,918,-623,539
2493,0.3242188,-9.811438,-0.7374141,-0.1197101,0.01278317,-0.0149137,-0.01171791,924,-645,512
2493.004,0.328125,-9.782708,-0.7326257,-0.2154781,0.01065264,-0.01597897,-0.008522115,870,-653,504
2493.008,0.3320312,-9.821015,-0.6895301,-0.1388637,0.008522115,-0.0181095,-0.01278317,939,-641,515
2493.012,0.3359375,-9.825804,-0.6368576,-0.1244985,0.001065264,-0.02024002,-0.01278317,901,-638,536
2493.016,0.3398438,-9.849746,-0.6272808,-0.1101333,-0.003195793,-0.02237055,-0.01384844,897,-629,499
2493.02,0.34375,-9.80665,-0.5841852,-0.09576807,-0.005326322,-0.02663161,-0.01597897,911,-640,528
2493.023,0.3476562,-9.768343,-0.5889736,-0.1005565,-0.007456851,-0.02876214,-0.0181095,897,-675,499
2493.027,0.3515625,-9.830592,-0.5793968,-0.08140286,-0.006391587,-0.03195793,-0.02024002,908,-618,532
2493.031,0.3554688,-9.816227,-0.5554548,-0.05746084,-0.003195793,-0.03515373,-0.02343582,884,-641,485
2493.035,0.359375,-9.844957,-0.5506664,-0.05746084,0,-0.03408846,-0.02556635,926,-639,511
2493.039,0.3632812,-9.816227,-0.5315128,-0.04788403,-0.002130529,-0.03621899,-0.02556635,913,-597,499
2493.043,0.3671875,-9.825804,-0.5075708,-0.07182605,-0.007456851,-0.03834952,-0.02769688,889,-654,499
2493.047,0.3710938,-9.883264,-0.5123592,-0.1149217,-0.01704423,-0.04048005,-0.02556635,908,-639,479
2493.051,0.375,-9.816227,-0.4692635,-0.1436521,-0.02663161,-0.04474111,-0.02876214,854,-620,479
2493.055,0.3789062,-9.816227,-0.4644751,-0.1723825,-0.0330232,-0.04580637,-0.02556635,903,-638,490
2493.059,0.3828125,-9.801862,-0.4309563,-0.1532289,-0.04687164,-0.04900216,-0.02876214,920,-601,509
2493.062,0.3867188,-9.797073,-0.4357447,-0.2059013,-0.05326322,-0.05219796,-0.02769688,926,-660,536
2493.066,0.390625,-9.758766,-0.4070143,-0.2298434,-0.05965481,-0.05645902,-0.02769688,920,-597,509
2493.07,0.3945312,-9.763554,-0.3926491,-0.3399766,-0.0660464,-0.05965481,-0.02769688,948,-608,500
2493.074,0.3984375,-9.816227,-0.4165911,-0.3399766,-0.07456851,-0.05432849,-0.02663161,899,-605,530
2493.078,0.4023438,-9.763554,-0.4070143,-0.3878607,-0.07882957,-0.05113269,-0.02663161,883,-662,494
2493.082,0.40625,-9.811438,-0.4405331,-0.320823,-0.08415589,-0.04474111,-0.02663161,897,-618,484
2493.086,0.4101562,-9.830592,-0.4070143,-0.3160346,-0.08522115,-0.0479369,-0.02450108,945,-637,521
2493.09,0.4140625,-9.892841,-0.4022259,-0.2825158,-0.0809601,-0.0479369,-0.02450108,912,-618,499
2493.094,0.4179688,-9.89763,-0.3974375,-0.3351882,-0.07669904,-0.05326322,-0.02450108,893,-641,519
2493.098,0.421875,-9.854534,-0.3878607,-0.3782839,-0.07456851,-0.05326322,-0.02237055,916,-632,482
2493.102,0.4257812,-9.888053,-0.3495534,-0.3926491,-0.07456851,-0.05113269,-0.02130529,895,-629,539
2493.105,0.4296875,-9.892841,-0.3399766,-0.3399766,-0.07669904,-0.04474111,-0.0149137,941,-631,489
2493.109,0.4335938,-9.931148,-0.272939,-0.3591302,-0.0777643,-0.04261058,-0.01171791,926,-612,496
2493.113,0.4375,-9.955091,-0.225055,-0.3830723,-0.07350325,-0.04048005,-0.006391587,906,-638,523
2493.117,0.4414062,-9.983821,-0.1963245,-0.3495534,-0.07350325,-0.04474111,-0.003195793,913,-648,491
2493.121,0.4453125,-9.955091,-0.09097966,-0.272939,-0.07030745,-0.05006743,0.004261058,916,-623,472
2493.125,0.4492188,-9.916783,-0.01915361,-0.2585738,-0.06924219,-0.05326322,0.008522115,913,-606,501
2493.129,0.453125,-9.902418,-0.009576807,-0.2537854,-0.0660464,-0.05539375,0.0149137,929,-619,510
2493.133,0.4570312,-9.878476,0.06703765,-0.1867477,-0.06924219,-0.05432849,0.01917476,893,-603,509
2493.137,0.4609375,-9.811438,0.06224924,-0.2442086,-0.06924219,-0.04900216,0.0298274,928,-649,507
2493.141,0.4648438,-9.773131,0.09097966,-0.1915361,-0.07350325,-0.04580637,0.03621899,876,-635,484
2493.145,0.46875,-9.763554,0.03351882,-0.1867477,-0.07563377,-0.04048005,0.04474111,891,-612,481
2493.148,0.4726562,-9.725247,0.04788403,-0.1532289,-0.0809601,-0.03834952,0.04580637,888,-632,518
2493.152,0.4765625,-9.744401,0.04788403,-0.1723825,-0.08415589,-0.0330232,0.05645902,949,-652,498
2493.156,0.4804688,-9.744401,0.05746084,-0.07182605,-0.08735168,-0.03515373,0.0628506,903,-638,547
2493.16,0.484375,-9.782708,0.05746084,-0.07182605,-0.08415589,-0.03728426,0.06924219,887,-645,496
2493.164,0.4882812,-9.873688,0.06224924,0,-0.0777643,-0.04687164,0.07243798,909,-656,510
2493.168,0.4921875,-9.921572,0.1197101,0.08619126,-0.06711166,-0.05432849,0.07989483,946,-616,513
2493.172,0.4960938,-9.935937,0.1819593,0.1436521,-0.05432849,-0.06391587,0.08522115,904,-613,529
2493.176,0.5,-9.979033,0.248997,0.2346318,-0.03941478,-0.0777643,0.09267801,874,-631,507
2493.18,0.5039062,-9.983821,0.344765,0.3303998,-0.0181095,-0.1043959,0.1033307,945,-652,521
2493.184,0.5078125,-9.969456,0.4644751,0.3256114,0.003195793,-0.1246359,0.112918,953,-610,504
2493.188,0.5117188,-10.0317,0.5506664,0.3639187,0.02556635,-0.1438107,0.1235707,910,-624,479
2493.191,0.515625,-9.974244,0.6751649,0.4357447,0.04900216,-0.1619202,0.1363538,912,-630,540
2493.195,0.5195312,-9.993398,0.9289502,0.3543418,0.08735168,-0.1896171,0.1544633,882,-620,511
2493.199,0.5234375,-9.921572,1.091756,0.2394202,0.1246359,-0.2045308,0.1725728,943,-613,508
2493.203,0.5273438,-9.89763,1.278504,0.08140286,0.1608549,-0.2162487,0.1896171,933,-641,504
2493.207,0.53125,-9.864111,1.374272,-0.2202666,0.1960087,-0.2151834,0.2077266,953,-662,527
2493.211,0.5351562,-9.758766,1.604115,-0.593762,0.237554,-0.1960087,0.2354234,932,-628,492
2493.215,0.5390625,-9.643844,1.637634,-0.8571242,0.2524677,-0.165116,0.2588593,948,-623,508
2493.219,0.5429688,-9.600749,1.671153,-1.04866,0.2535329,-0.1225054,0.2876214,910,-603,496
2493.223,0.546875,-9.538499,1.690306,-1.04866,0.2450108,-0.08202536,0.3185141,925,-621,520
2493.227,0.5507812,-9.615114,1.647211,-0.9433155,0.2077266,-0.04048005,0.3557983,893,-667,524
2493.23,0.5546875,-9.720459,1.522712,-0.7230489,0.1725728,-0.02663161,0.3856257,901,-604,496
2493.234,0.5585938,-9.849746,1.441309,-0.6033388,0.1374191,-0.03195793,0.4101268,893,-644,514
2493.238,0.5625,-9.983821,1.441309,-0.4548983,0.112918,-0.05113269,0.4388889,921,-617,484
2493.242,0.5664062,-10.06522,1.441309,-0.3351882,0.1033307,-0.08628642,0.4751079,919,-587,513
2493.246,0.5703125,-10.04128,1.527501,-0.3016694,0.1150486,-0.1182444,0.5028048,908,-659,531
2493.25,0.5742188,-9.902418,1.656788,-0.3303998,0.1438107,-0.1523328,0.5294364,924,-640,487
2493.254,0.578125,-9.80665,1.766921,-0.248997,0.1885518,-0.1747034,0.5581986,945,-627,500
2493.258,0.5820312,-9.600749,1.94888,-0.2346318,0.2524677,-0.2024002,0.5954828,901,-620,526
2493.262,0.5859375,-9.399636,2.049437,-0.2059013,0.3025351,-0.2183792,0.6263755,919,-645,527
2493.266,0.5898438,-9.212888,2.197877,-0.07182605,0.3451457,-0.2322276,0.6562029,850,-633,492
2493.27,0.59375,-9.093178,2.336741,-0.009576807,0.3802994,-0.2503371,0.6881608,914,-649,519
2493.273,0.5976562,-8.939949,2.566584,0.1292869,0.4111921,-0.2695119,0.7318367,899,-619,518
2493.277,0.6015625,-8.762778,2.801216,0.2346318,0.42291,-0.2790993,0.7701862,904,-668,519
2493.281,0.6054688,-8.585607,2.944868,0.545878,0.4250405,-0.2876214,0.8106662,935,-618,504
2493.285,0.609375,-8.485051,3.169923,0.7086837,0.4133226,-0.2972088,0.8490158,954,-635,536
2493.289,0.6132812,-8.221689,3.495534,0.9672575,0.3760383,-0.3110572,0.9108011,886,-642,507
2493.293,0.6171875,-8.025364,3.711013,1.16837,0.334493,-0.3121225,0.9608685,944,-644,464
2493.297,0.6210938,-7.814674,3.892972,1.426944,0.2801645,-0.3067962,1.010936,888,-655,504
2493.301,0.625,-7.64708,3.998317,1.742979,0.2109224,-0.294013,1.069525,905,-641,469
2493.305,0.6289062,-7.431602,4.031836,2.078167,0.1150486,-0.2705772,1.152616,894,-605,510
2493.309,0.6328125,-7.326257,4.046201,2.145205,0.03834952,-0.2450108,1.218663,906,-622,492
2493.312,0.6367188,-7.206547,3.964798,2.102109,-0.0479369,-0.2183792,1.28897,920,-661,500
2493.316,0.640625,-7.105991,3.998317,2.130839,-0.1416802,-0.1938781,1.363538,879,-592,501
2493.32,0.6445312,-7.110779,3.720589,2.082955,-0.2652508,-0.1757686,1.465804,918,-650,491
2493.324,0.6484375,-7.278373,3.691859,2.202666,-0.3600594,-0.1757686,1.546764,917,-631,472
2493.328,0.6523438,-7.651869,3.356671,2.231396,-0.4516721,-0.2151834,1.620267,917,-692,495
2493.332,0.65625,-8.12592,2.873042,1.752556,-0.5049353,-0.3185141,1.670335,934,-618,511
2493.336,0.6601562,-8.513781,2.336741,0.7422025,-0.4932174,-0.4399542,1.718272,876,-656,517
2493.34,0.6640625,-8.585607,2.341529,0.1388637,-0.479369,-0.4261058,1.75236,922,-628,495
2493.344,0.6679688,-8.686164,2.63841,-0.1292869,-0.5209143,-0.3195793,1.814145,904,-646,507
2493.348,0.671875,-9.011775,2.499547,0.3303998,-0.588026,-0.2002697,1.902562,875,-625,476
2493.352,0.6757812,-9.988609,2.087744,1.086968,-0.5954828,-0.1640507,1.99524,923,-676,491
2493.355,0.6796875,-10.79785,1.910573,1.474828,-0.5454154,-0.2162487,2.034655,900,-666,513
2493.359,0.6835938,-11.53526,1.733402,1.843535,-0.5081311,-0.2908172,2.054895,866,-593,531
2493.363,0.6875,-12.37802,1.479617,2.073379,-0.4751079,-0.3462109,2.064482,903,-649,503
2493.367,0.6914062,-13.52245,1.04866,2.255338,-0.3802994,-0.3856257,2.057026,887,-628,505
2493.371,0.6953125,-14.43704,0.6033388,2.48997,-0.2695119,-0.3952131,2.042112,882,-646,495
2493.375,0.6992188,-15.30853,0.1053449,2.777274,-0.1331581,-0.4111921,1.998436,893,-617,515
2493.379,0.703125,-15.82567,-0.2202666,2.973598,0.01171791,-0.4506069,1.925998,898,-678,527
2493.383,0.7070312,-16.04594,-0.4022259,3.007117,0.205596,-0.5443501,1.791775,908,-655,521
2493.387,0.7109375,-15.68681,-0.09576807,2.676717,0.3249057,-0.6253102,1.69377,906,-668,508
2493.391,0.7148438,-15.03559,0.2777274,2.116474,0.4048005,-0.6934871,1.605354,866,-608,479
2493.395,0.71875,-14.11142,0.7517793,1.278504,0.4388889,-0.7350325,1.546764,894,-658,513
2493.398,0.7226562,-12.98615,1.565808,0.2537854,0.4090615,-0.7467504,1.522263,874,-651,512
2493.402,0.7265625,-12.29183,2.217031,-0.4213795,0.3408846,-0.7254451,1.535046,890,-670,482
2493.406,0.7304688,-11.70765,2.782062,-0.842759,0.2492719,-0.680704,1.564873,872,-672,511
2493.41,0.734375,-11.32457,3.217807,-1.144428,0.144876,-0.6157228,1.604288,900,-669,517
2493.414,0.7382812,-10.87925,3.648763,-1.058237,0.01704423,-0.5166533,1.65329,915,-653,505
2493.418,0.7421875,-10.75475,3.873818,-0.7613561,-0.05645902,-0.4420847,1.683118,878,-645,539
2493.422,0.7460938,-10.59195,4.070143,-0.3160346,-0.1075917,-0.3771036,1.696966,892,-677,522
2493.426,0.75,-10.45787,4.118027,0.1580173,-0.1470065,-0.3312972,1.699097,858,-647,517
2493.43,0.7539062,-10.35253,4.189853,0.7182605,-0.2024002,-0.2929477,1.683118,897,-667,512
2493.434,0.7578125,-10.3238,4.151546,0.9911995,-0.2652508,-0.2759035,1.667139,872,-614,506
2493.438,0.7617188,-10.28549,4.007894,1.221043,-0.350472,-0.2492719,1.644768,907,-634,508
2493.441,0.765625,-10.40041,3.825934,1.383849,-0.4538026,-0.2247708,1.625594,890,-668,496
2493.445,0.7695312,-10.59674,3.605668,1.675941,-0.6029397,-0.1981392,1.600027,904,-626,450
2493.449,0.7734375,-10.72602,3.41892,1.939303,-0.716923,-0.1896171,1.582983,886,-665,490
2493.453,0.7773438,-10.87925,3.318364,2.183512,-0.8191884,-0.1789644,1.569135,880,-630,499
2493.457,0.78125,-11.14261,3.078943,2.403778,-0.9171927,-0.1789644,1.54996,886,-626,519
2493.461,0.7851562,-11.39161,2.825158,2.695871,-1.018393,-0.1992044,1.524393,860,-655,480
2493.465,0.7890625,-11.59272,2.633622,2.815581,-1.082309,-0.2300971,1.498827,873,-660,527
2493.469,0.7929688,-11.69807,2.475605,2.901772,-1.136637,-0.2716424,1.465804,873,-650,519
2493.473,0.796875,-11.70286,2.255338,2.724601,-1.185639,-0.3174488,1.425324,863,-651,461
2493.477,0.8007812,-11.54963,2.06859,2.451662,-1.223989,-0.3632552,1.364604,882,-634,526
2493.48,0.8046875,-11.40598,1.924938,2.202666,-1.239968,-0.3834952,1.320928,895,-682,472
2493.484,0.8085938,-11.22402,1.790863,2.044648,-1.24849,-0.3930826,1.276187,849,-672,493
2493.488,0.8125,-10.91756,1.628057,1.900996,-1.247425,-0.3973436,1.23038,900,-601,516
2493.492,0.8164062,-10.70687,1.398214,1.647211,-1.23038,-0.3994742,1.16753,868,-615,477
2493.496,0.8203125,-10.4052,1.297657,1.407791,-1.213336,-0.3952131,1.117462,893,-660,483
2493.5,0.8242188,-10.16578,1.158794,1.13964,-1.183509,-0.3802994,1.06846,839,-695,522
2493.504,0.828125,-9.662998,1.053449,0.842759,-1.144094,-0.3536678,1.02585,853,-647,525
2493.508,0.8320312,-9.342175,0.8810662,0.7374141,-1.079113,-0.3067962,0.9725864,838,-674,504
2493.512,0.8359375,-9.093178,0.7996634,0.6272808,-1.02798,-0.2673814,0.9448896,863,-633,503
2493.516,0.8398438,-8.825027,0.7900865,0.593762,-0.9725864,-0.2428803,0.9235843,852,-638,490
2493.52,0.84375,-8.734048,0.6607997,0.4501099,-0.9203885,-0.2279666,0.90654,905,-657,474
2493.523,0.8476562,-8.628703,0.6560113,0.3639187,-0.8468852,-0.2237055,0.8873653,885,-636,496
2493.527,0.8515625,-8.485051,0.6751649,0.3399766,-0.7925567,-0.2183792,0.8767126,841,-667,516
2493.531,0.8554688,-8.403648,0.617704,0.3734955,-0.741424,-0.2183792,0.86606,848,-659,476
2493.535,0.859375,-8.384494,0.6751649,0.5841852,-0.6775082,-0.2162487,0.8490158,848,-641,470
2493.539,0.8632812,-8.322245,0.7134721,0.8044518,-0.6348976,-0.2162487,0.8362326,862,-636,492
2493.543,0.8671875,-8.231265,0.7374141,1.029507,-0.5933523,-0.2279666,0.8149273,866,-625,522
2493.547,0.8710938,-8.226477,0.7661445,1.144428,-0.5539375,-0.2439456,0.7872304,862,-632,452
2493.551,0.875,-8.09719,0.8571242,1.240196,-0.5081311,-0.2492719,0.7446198,865,-616,495
2493.555,0.8789062,-8.106767,0.9193734,1.398214,-0.479369,-0.2439456,0.7052051,841,-643,513
2493.559,0.8828125,-8.030152,1.04866,1.537077,-0.4527374,-0.2332929,0.6668555,858,-648,520
2493.562,0.8867188,-8.001422,1.173159,1.70946,-0.4324974,-0.2205097,0.6263755,842,-639,494
2493.566,0.890625,-7.939173,1.35033,1.905785,-0.4207795,-0.2024002,0.5709817,837,-621,527
2493.57,0.8945312,-7.929596,1.551443,2.015918,-0.4197142,-0.1885518,0.5305017,863,-662,480
2493.574,0.8984375,-7.881712,1.699883,2.06859,-0.4197142,-0.1800297,0.4921522,865,-626,496
2493.578,0.9023438,-7.8865,1.814805,2.121263,-0.4239752,-0.169377,0.4527374,825,-640,488
2493.582,0.90625,-7.881712,1.972822,2.173935,-0.4420847,-0.1533981,0.4058658,836,-655,512
2493.586,0.9101562,-7.805097,2.059013,2.212242,-0.4548679,-0.144876,0.3717773,844,-651,495
2493.59,0.9140625,-7.862558,2.149993,2.264915,-0.4697816,-0.1342233,0.3451457,850,-683,505
2493.594,0.9179688,-7.881712,2.164358,2.269703,-0.4868258,-0.1299623,0.3195793,827,-665,492
2493.598,0.921875,-7.843405,2.145205,2.303222,-0.5123922,-0.1225054,0.2854909,832,-661,475
2493.602,0.9257812,-7.809886,2.145205,2.240973,-0.5241101,-0.1225054,0.2620551,843,-646,486
2493.605,0.9296875,-7.785944,2.087744,2.207454,-0.535828,-0.1182444,0.241815,878,-646,479
2493.609,0.9335938,-7.771579,2.126051,2.221819,-0.5422196,-0.1171791,0.2226403,830,-649,489
2493.613,0.9375,-7.800309,2.035071,2.15957,-0.5422196,-0.1097222,0.1970739,832,-644,497
2493.617,0.9414062,-7.781155,1.982399,2.087744,-0.535828,-0.1065264,0.1768339,838,-637,476
2493.621,0.9453125,-7.728483,2.006341,2.030283,-0.5219796,-0.1012001,0.1608549,860,-623,500
2493.625,0.9492188,-7.714118,1.929727,1.987187,-0.5049353,-0.09800433,0.1427454,814,-653,488
2493.629,0.953125,-7.685387,1.896208,1.843535,-0.4687164,-0.09161274,0.1182444,831,-657,490
2493.633,0.9570312,-7.594408,1.762132,1.819593,-0.4346279,-0.08948221,0.09800433,857,-649,506
2493.637,0.9609375,-7.608773,1.68073,1.810016,-0.3930826,-0.08948221,0.07669904,851,-631,499
2493.641,0.9648438,-7.584831,1.675941,1.814805,-0.3398194,-0.08841695,0.05006743,839,-678,489
2493.645,0.96875,-7.503428,1.623269,1.8579,-0.2620551,-0.08735168,0.0181095,864,-640,484
2493.648,0.9726562,-7.503428,1.580173,1.881843,-0.1970739,-0.08415589,-0.00958738,855,-670,485
2493.652,0.9765625,-7.460332,1.503559,1.896208,-0.1342233,-0.08415589,-0.03515373,834,-644,511
2493.656,0.9804688,-7.426814,1.503559,1.968034,-0.07350325,-0.08628642,-0.06072007,846,-608,471
2493.66,0.984375,-7.354988,1.556231,1.982399,0.006391587,-0.09054748,-0.09800433,864,-629,498
2493.664,0.9882812,-7.431602,1.604115,2.097321,0.0660464,-0.09267801,-0.1267665,873,-658,459
2493.668,0.9921875,-7.383718,1.613692,2.078167,0.1203749,-0.09906959,-0.1565939,866,-688,499
2493.672,0.9960938,-7.369353,1.642422,2.149993,0.1736381,-0.09906959,-0.185356,829,-646,514
2493.676,1,-7.292738,1.723825,2.207454,0.2396845,-0.1012001,-0.2269013,856,-630,482
2493.68,1.003906,-7.283161,1.80044,2.236184,0.2854909,-0.1022654,-0.2599245,861,-643,487
2493.684,1.007812,-7.278373,1.891419,2.274492,0.3376888,-0.08522115,-0.2918825,883,-651,488
2493.688,1.011719,-7.302315,2.03986,2.375048,0.3813647,-0.09906959,-0.3270362,861,-662,482
2493.691,1.015625,-7.278373,2.164358,2.42772,0.4452805,-0.09906959,-0.370712,908,-609,510
2493.695,1.019531,-7.307103,2.30801,2.580949,0.4921522,-0.09161274,-0.4005394,847,-653,499
2493.699,1.023438,-7.259219,2.413355,2.691083,0.5390238,-0.08841695,-0.4293016,855,-613,491
2493.703,1.027344,-7.297527,2.509123,2.738967,0.5816344,-0.07989483,-0.4559332,861,-634,509
2493.707,1.03125,-7.398083,2.633622,2.834735,0.6327671,-0.07030745,-0.4900216,849,-654,509
2493.711,1.035156,-7.383718,2.762909,2.762909,0.6668555,-0.05858954,-0.5145227,856,-628,523
2493.715,1.039062,-7.422025,2.858677,2.806004,0.6934871,-0.05113269,-0.5326322,896,-648,523
2493.719,1.042969,-7.469909,2.973598,2.75812,0.716923,-0.04048005,-0.551807,843,-641,509
2493.723,1.046875,-7.546524,3.169923,2.806004,0.7350325,-0.01704423,-0.5731123,838,-650,498
2493.727,1.050781,-7.61835,3.294421,2.815581,0.7435546,0,-0.5890912,854,-653,538
2493.73,1.054688,-7.608773,3.428497,2.901772,0.7467504,0.0149137,-0.6008091,895,-619,490
2493.734,1.058594,-7.73806,3.572149,2.935291,0.7467504,0.03195793,-0.6157228,819,-650,544
2493.738,1.0625,-7.757213,3.801992,3.107674,0.7403588,0.0479369,-0.6327671,835,-639,474
2493.742,1.066406,-7.814674,3.912126,3.1795,0.7275756,0.05752428,-0.6423545,842,-633,469
2493.746,1.070312,-7.848193,4.122815,3.213019,0.7084008,0.0628506,-0.648746,854,-657,509
2493.75,1.074219,-7.929596,4.237737,3.236961,0.6838998,0.06817692,-0.6540724,853,-684,462
2493.754,1.078125,-7.896077,4.395754,3.222595,0.6476808,0.07243798,-0.6636597,855,-626,510
2493.758,1.082031,-7.920019,4.52983,3.189077,0.6167881,0.07456851,-0.6679208,895,-655,502
2493.762,1.085938,-7.939173,4.644751,3.184288,0.5858954,0.07563377,-0.6679208,820,-660,499
2493.766,1.089844,-7.963115,4.817134,3.117251,0.5571333,0.07350325,-0.6700513,865,-674,543
2493.77,1.09375,-7.915231,4.922479,3.083732,0.5091964,0.06178534,-0.6700513,843,-667,499
2493.773,1.097656,-7.924807,5.133168,3.05979,0.4761732,0.05645902,-0.6679208,855,-657,486
2493.777,1.101562,-7.915231,5.24809,2.973598,0.4420847,0.05432849,-0.664725,830,-662,496
2493.781,1.105469,-7.896077,5.415684,2.964022,0.4079963,0.05752428,-0.664725,861,-673,479
2493.785,1.109375,-7.915231,5.616797,2.868254,0.3515373,0.06711166,-0.6572682,865,-681,496
2493.789,1.113281,-7.920019,5.774814,2.710236,0.3121225,0.07882957,-0.6498113,855,-623,509
2493.793,1.117188,-7.900865,5.975927,2.557007,0.2673814,0.09906959,-0.6402239,851,-667,489
2493.797,1.121094,-7.881712,6.162675,2.485181,0.221575,0.1299623,-0.628506,874,-650,502
2493.801,1.125,-7.8865,6.363788,2.446874,0.1608549,0.1683118,-0.6135923,877,-647,490
2493.805,1.128906,-7.953538,6.502652,2.48997,0.1235707,0.1960087,-0.6008091,834,-631,484
2493.809,1.132812,-8.010999,6.631939,2.523489,0.08735168,0.2151834,-0.5858954,837,-655,461
2493.812,1.136719,-8.111555,6.756437,2.504335,0.05219796,0.2290319,-0.5699165,850,-634,519
2493.816,1.140625,-8.212112,7.024588,2.585738,-0.003195793,0.2332929,-0.5422196,827,-632,509
2493.82,1.144531,-8.288726,7.082049,2.547431,-0.04154531,0.2332929,-0.5219796,862,-644,481
2493.824,1.148438,-8.341399,7.105991,2.533065,-0.07563377,0.2364887,-0.4974785,892,-641,487
2493.828,1.152344,-8.394071,7.144298,2.422932,-0.09800433,0.2311624,-0.4751079,814,-654,507
2493.832,1.15625,-8.537723,7.110779,2.470816,-0.1182444,0.2322276,-0.4410195,881,-661,467
2493.836,1.160156,-8.580819,7.125144,2.408567,-0.1363538,0.2247708,-0.4186489,881,-662,507
2493.84,1.164062,-8.671798,7.091625,2.37026,-0.1502023,0.2226403,-0.3920173,886,-653,479
2493.844,1.167969,-8.662222,7.120356,2.336741,-0.149137,0.2300971,-0.3611246,846,-688,527
2493.848,1.171875,-8.772355,6.952762,2.106897,-0.1033307,0.2311624,-0.3227751,839,-658,523
2493.852,1.175781,-8.78672,6.727707,1.814805,-0.01704423,0.2290319,-0.2950782,881,-634,541
2493.855,1.179688,-8.815451,6.473921,1.508347,0.1182444,0.221575,-0.2684466,866,-623,487
2493.859,1.183594,-8.944737,6.0286,1.091756,0.2886867,0.2162487,-0.2407498,864,-636,548
2493.863,1.1875,-9.030929,5.377377,0.56982,0.5592638,0.2269013,-0.2098571,861,-621,518
2493.867,1.191406,-9.136274,5.003881,0.2633622,0.7680557,0.2482066,-0.1917476,865,-624,515
2493.871,1.195312,-9.227253,4.683058,0.1053449,0.9640643,0.2812298,-0.1683118,853,-669,507
2493.875,1.199219,-9.313444,4.501099,-0.05746084,1.143029,0.3174488,-0.144876,884,-658,517
2493.879,1.203125,-9.275137,4.520253,-0.1628057,1.342233,0.3685815,-0.1139833,863,-675,542
2493.883,1.207031,-9.279926,4.592079,-0.1675941,1.466869,0.4016047,-0.08522115,885,-681,474
2493.887,1.210938,-9.174581,4.754884,-0.1484405,1.564873,0.4324974,-0.05858954,826,-689,488
2493.891,1.214844,-9.002198,4.984728,0.02873042,1.644768,0.4708469,-0.03195793,885,-639,493
2493.895,1.21875,-8.820239,5.319916,0.248997,1.662878,0.5347627,0.005326322,855,-649,529
2493.898,1.222656,-8.619126,5.473145,0.4357447,1.641572,0.5752428,0.03515373,857,-648,496
2493.902,1.226562,-8.461109,5.635951,0.6081272,1.573396,0.6103965,0.06711166,876,-619,514
2493.906,1.230469,-8.259996,5.72693,1.034295,1.392301,0.6562029,0.1033307,849,-608,479
2493.91,1.234375,-8.149862,5.798756,1.187524,1.170726,0.6743124,0.1310275,845,-655,469
2493.914,1.238281,-8.06846,5.870582,1.197101,0.8692558,0.684965,0.1533981,874,-647,476
2493.918,1.242188,-7.94875,5.813122,1.067814,0.5102617,0.7030745,0.169377,873,-702,518
2493.922,1.246094,-7.910442,5.755661,0.617704,0.0181095,0.7456851,0.1800297,848,-663,469
2493.926,1.25,-7.819463,5.540183,0.3974375,-0.3281014,0.8085357,0.1768339,843,-672,480
2493.93,1.253906,-7.718906,5.262455,0.3830723,-0.6476808,0.9097358,0.1757686,899,-608,496
2493.934,1.257812,-7.771579,4.831499,0.9050082,-0.9406285,1.020523,0.1725728,841,-642,481
2493.938,1.261719,-8.298303,3.888183,2.207454,-1.26873,1.118528,0.1459412,908,-673,490
2493.941,1.265625,-9.093178,3.112462,3.414132,-1.455151,1.096157,0.09693906,860,-633,447
2493.945,1.269531,-10.0317,2.351106,4.419696,-1.59044,0.9875001,0.01384844,877,-647,522
2493.949,1.273438,-11.16177,1.795651,5.171476,-1.668204,0.809601,-0.1033307,858,-632,508
2493.953,1.277344,-12.54562,1.225831,5.501875,-1.668204,0.5507417,-0.3014698,839,-643,475
2493.957,1.28125,-13.42189,1.16837,5.291186,-1.587244,0.370712,-0.4708469,885,-641,520
2493.961,1.285156,-14.05875,1.47004,5.075708,-1.453021,0.221575,-0.648746,807,-677,517
2493.965,1.289062,-14.33648,2.015918,4.845864,-1.298557,0.09374327,-0.8159926,862,-666,494
2493.969,1.292969,-14.2455,3.107674,4.328717,-1.112136,-0.04048005,-1.004544,845,-627,504
2493.973,1.296875,-13.94862,4.141969,3.653552,-1.002414,-0.1118528,-1.099353,858,-634,524
2493.977,1.300781,-13.45062,5.003881,2.614468,-0.9193232,-0.1523328,-1.144094,881,-646,497
2493.98,1.304688,-12.73236,5.827487,1.460463,-0.8607337,-0.1320928,-1.12918,854,-642,495
2493.984,1.308594,-11.74116,6.234501,-0.05746084,-0.7978831,0.003195793,-1.00561,866,-647,525
2493.988,1.3125,-10.97502,6.033388,-0.8475474,-0.7456851,0.169377,-0.8372978,856,-653,476
2493.992,1.316406,-10.3621,5.434838,-1.182736,-0.6828345,0.366451,-0.6189186,870,-615,511
2493.996,1.320312,-9.998186,4.472369,-1.125275,-0.6135923,0.556068,-0.3792341,833,-642,503
2494,1.324219,-9.883264,2.944868,-0.6320692,-0.5081311,0.7616641,-0.07137272,879,-672,493
2494.004,1.328125,-9.92636,1.608904,-0.06224924,-0.42291,0.8617989,0.1139833,870,-683,498
2494.008,1.332031,-10.17057,0.3160346,0.5315128,-0.3312972,0.8905611,0.2386192,853,-646,494
2494.012,1.335938,-10.2807,-1.125275,1.04866,-0.2332929,0.8522115,0.3067962,882,-633,513
2494.016,1.339844,-10.45787,-3.08852,1.517924,-0.1033307,0.7190535,0.3046656,885,-671,488
2494.02,1.34375,-10.31901,-4.448427,1.532289,-0.01917476,0.592287,0.2439456,858,-647,511
2494.023,1.347656,-10.18493,-5.674258,1.225831,0.05858954,0.4687164,0.1384844,878,-646,497
2494.027,1.351562,-9.80665,-6.550536,0.7661445,0.1608549,0.3845605,0.008522115,865,-623,526
2494.031,1.355469,-9.385271,-7.07726,0.1771709,0.3728426,0.3387541,-0.1981392,878,-633,540
2494.035,1.359375,-9.078813,-7.029376,-0.1292869,0.5912218,0.3419499,-0.3632552,892,-656,496
2494.039,1.363281,-8.887277,-6.62715,-0.4165911,0.84582,0.3568636,-0.5251754,856,-660,490
2494.043,1.367188,-8.853758,-5.951985,-0.7134721,1.100418,0.3771036,-0.6817692,869,-658,527
2494.047,1.371094,-8.920795,-5.032612,-1.11091,1.391235,0.4005394,-0.8767126,853,-676,502
2494.051,1.375,-9.074024,-4.094085,-1.273715,1.559547,0.4122573,-1.013066,908,-641,495
2494.055,1.378906,-9.284714,-3.026271,-1.455675,1.676726,0.4154531,-1.135572,914,-633,530
2494.059,1.382812,-9.428366,-1.8579,-1.714248,1.748099,0.4111921,-1.238903,869,-622,479
2494.062,1.386719,-9.514557,-0.3734955,-1.958457,1.781122,0.4090615,-1.342233,878,-671,494
2494.066,1.390625,-9.442731,0.6799533,-2.03986,1.765143,0.4154531,-1.385909,890,-642,500
2494.07,1.394531,-9.251195,1.517924,-2.015918,1.725728,0.4346279,-1.400823,853,-647,471
2494.074,1.398438,-9.222465,2.202666,-1.656788,1.668204,0.4527374,-1.389105,894,-671,512
2494.078,1.402344,-9.260772,2.839523,-0.9289502,1.551025,0.4644553,-1.34756,883,-622,507
2494.082,1.40625,-9.457097,3.05979,-0.272939,1.44876,0.4410195,-1.306014,874,-666,510
2494.086,1.410156,-9.600749,3.342306,0.1819593,1.330515,0.4005394,-1.254882,882,-675,514
2494.09,1.414062,-9.643844,3.552995,0.320823,1.21014,0.3557983,-1.204814,906,-679,498
2494.094,1.417969,-9.720459,3.859453,0.1292869,1.070591,0.3259709,-1.137702,856,-668,504
2494.098,1.421875,-9.639056,4.19943,-0.1197101,0.974717,0.3227751,-1.076982,854,-656,504
2494.102,1.425781,-9.557653,4.43885,-0.2825158,0.8713863,0.3430151,-1.010936,867,-634,508
2494.105,1.429688,-9.457097,4.639963,-0.4213795,0.7520767,0.3579289,-0.9416938,912,-669,514
2494.109,1.433594,-9.423578,4.860229,-0.4884171,0.556068,0.3653857,-0.8479505,900,-638,520
2494.113,1.4375,-9.318233,4.88896,-0.5267244,0.3813647,0.3643204,-0.7925567,868,-644,514
2494.117,1.441406,-9.332598,4.951209,-0.6560113,0.1960087,0.3611246,-0.7403588,867,-643,477
2494.121,1.445312,-9.251195,4.874595,-0.7038953,0.0149137,0.3547331,-0.6966829,864,-637,496
2494.125,1.449219,-9.150639,4.697424,-0.8714894,-0.2098571,0.3494067,-0.6476808,871,-670,506
2494.129,1.453125,-9.064447,4.472369,-0.9816227,-0.3515373,0.3472762,-0.6231797,894,-642,479
2494.133,1.457031,-8.963891,4.141969,-1.120486,-0.4719121,0.3547331,-0.6008091,857,-632,520
2494.137,1.460938,-8.825027,3.701436,-1.149217,-0.5677859,0.3611246,-0.5784386,903,-686,479
2494.141,1.464844,-8.743624,3.007117,-1.173159,-0.6583334,0.3760383,-0.551807,893,-660,476
2494.145,1.46875,-8.734048,2.418144,-1.101333,-0.7020093,0.3813647,-0.535828,909,-660,519
2494.148,1.472656,-8.686164,1.819593,-1.01993,-0.7297061,0.386691,-0.5230448,907,-627,498
2494.152,1.476562,-8.767566,1.216254,-0.9097966,-0.7435546,0.3920173,-0.5145227,892,-665,496
2494.156,1.480469,-8.820239,0.4596867,-0.7613561,-0.7446198,0.3962784,-0.5091964,895,-624,538
2494.16,1.484375,-8.925584,0.009576807,-0.6703765,-0.7275756,0.3973436,-0.5113269,882,-643,540
2494.164,1.488281,-9.02614,-0.4070143,-0.6655881,-0.6924219,0.3898868,-0.5209143,876,-665,519
2494.168,1.492188,-9.150639,-0.7278373,-0.6799533,-0.6423545,0.3771036,-0.535828,905,-630,507
2494.172,1.496094,-9.193734,-1.010353,-0.6512229,-0.5603291,0.3696468,-0.5613944,932,-677,476
2494.176,1.5,-9.260772,-1.134852,-0.6512229,-0.4889564,0.3675162,-0.5784386,900,-668,508
2494.18,1.503906,-9.308656,-1.173159,-0.5506664,-0.4111921,0.3653857,-0.5965481,845,-672,559
2494.184,1.507812,-9.299079,-1.197101,-0.5650316,-0.3323625,0.3685815,-0.6157228,868,-655,518
2494.188,1.511719,-9.337386,-1.206678,-0.5267244,-0.2247708,0.3685815,-0.6253102,919,-632,528
2494.191,1.515625,-9.318233,-1.173159,-0.6224924,-0.1331581,0.3568636,-0.6327671,892,-638,495
2494.195,1.519531,-9.346963,-1.134852,-0.7565677,-0.03195793,0.3483415,-0.6338323,916,-660,520
2494.199,1.523438,-9.332598,-1.01993,-0.9624691,0.08202536,0.3419499,-0.6380934,931,-657,513
2494.203,1.527344,-9.279926,-0.914585,-1.101333,0.2343582,0.3451457,-0.6391587,901,-621,505
2494.207,1.53125,-9.279926,-0.7661445,-1.158794,0.3440804,0.3472762,-0.6359629,893,-652,486
2494.211,1.535156,-9.279926,-0.6272808,-1.16837,0.4410195,0.3472762,-0.6327671,872,-622,500
2494.215,1.539062,-9.318233,-0.4884171,-1.077391,0.5187838,0.3451457,-0.6295713,896,-667,505
2494.219,1.542969,-9.366117,-0.3303998,-1.096544,0.5997439,0.3323625,-0.6274408,896,-647,502
2494.223,1.546875,-9.404424,-0.1723825,-1.024718,0.6412892,0.3195793,-0.6231797,920,-630,516
2494.227,1.550781,-9.466673,-0.07182605,-0.9720459,0.6721819,0.3057309,-0.6263755,880,-647,522
2494.23,1.554688,-9.481039,0.1436521,-0.9481039,0.6924219,0.2993393,-0.6253102,900,-637,489
2494.234,1.558594,-9.471462,0.3687071,-0.9050082,0.7137272,0.2876214,-0.6253102,866,-629,536
2494.238,1.5625,-9.519346,0.5554548,-0.8379706,0.7265103,0.2812298,-0.6263755,906,-628,538
2494.242,1.566406,-9.528923,0.6751649,-0.7230489,0.7307714,0.2759035,-0.6221144,903,-645,494
2494.246,1.570312,-9.47625,0.8762778,-0.7422025,0.7243798,0.2812298,-0.6199839,914,-620,514
2494.25,1.574219,-9.47625,1.005565,-0.7230489,0.721184,0.2918825,-0.6146576,866,-642,471
2494.254,1.578125,-9.409213,1.221043,-0.8236054,0.7201188,0.3046656,-0.6103965,896,-675,519
2494.258,1.582031,-9.423578,1.369483,-0.9385271,0.7126619,0.3025351,-0.6114618,918,-618,493
2494.262,1.585938,-9.394847,1.474828,-1.058237,0.6817692,0.3004046,-0.608266,869,-652,520
2494.266,1.589844,-9.370905,1.541866,-1.058237,0.644485,0.3046656,-0.6018744,914,-638,528
2494.27,1.59375,-9.284714,1.58975,-0.9528923,0.5997439,0.3110572,-0.5986786,866,-647,481
2494.273,1.597656,-9.303868,1.594538,-0.9050082,0.5464807,0.309992,-0.592287,887,-651,510
2494.277,1.601562,-9.255984,1.58975,-0.6991069,0.4761732,0.3046656,-0.5816344,899,-613,523
2494.281,1.605469,-9.260772,1.613692,-0.4884171,0.42291,0.3014698,-0.5773733,925,-623,484
2494.285,1.609375,-9.260772,1.49877,-0.4644751,0.3771036,0.3025351,-0.5731123,909,-626,500
2494.289,1.613281,-9.260772,1.450886,-0.3591302,0.3398194,0.3067962,-0.5688512,929,-633,522
2494.293,1.617188,-9.217676,1.316811,-0.2346318,0.2961435,0.3089267,-0.5592638,921,-646,511
2494.297,1.621094,-9.303868,1.192312,-0.1388637,0.2631203,0.309992,-0.5550028,896,-640,496
2494.301,1.625,-9.26556,1.101333,-0.1484405,0.2322276,0.3089267,-0.5550028,861,-662,485
2494.305,1.628906,-9.32781,1.058237,-0.1388637,0.2024002,0.3067962,-0.5581986,958,-667,482
2494.309,1.632812,-9.370905,0.9816227,-0.1867477,0.1704423,0.3025351,-0.5613944,906,-656,538
2494.312,1.636719,-9.394847,0.9289502,-0.1628057,0.1502023,0.298274,-0.5656554,896,-666,499
2494.316,1.640625,-9.44752,0.8379706,-0.1963245,0.1342233,0.2950782,-0.572047,904,-663,505
2494.32,1.644531,-9.428366,0.7900865,-0.1963245,0.1214401,0.2950782,-0.5795039,924,-647,544
2494.324,1.648438,-9.471462,0.6655881,-0.2777274,0.1043959,0.2918825,-0.5890912,901,-646,483
2494.328,1.652344,-9.509769,0.6512229,-0.3543418,0.0958738,0.2929477,-0.5976133,928,-646,526
2494.332,1.65625,-9.47625,0.5841852,-0.3926491,0.09054748,0.298274,-0.6050702,907,-607,510
2494.336,1.660156,-9.44752,0.521936,-0.3256114,0.08309063,0.3014698,-0.6135923,846,-618,535
2494.34,1.664062,-9.461885,0.4357447,-0.2920926,0.07882957,0.3025351,-0.6199839,925,-619,486
2494.344,1.667969,-9.428366,0.3782839,-0.248997,0.07989483,0.3078614,-0.624245,863,-662,545
2494.348,1.671875,-9.366117,0.2873042,-0.2059013,0.09054748,0.3131877,-0.6263755,905,-689,472
2494.352,1.675781,-9.361328,0.2681506,-0.1771709,0.1001349,0.3249057,-0.624245,871,-617,510
2494.355,1.679688,-9.346963,0.1675941,-0.09576807,0.1246359,0.3291667,-0.6210492,883,-655,505
2494.359,1.683594,-9.351752,0.1005565,-0.1436521,0.1459412,0.3312972,-0.6178534,915,-638,521
2494.363,1.6875,-9.323021,0.03830723,-0.2537854,0.1683118,0.3312972,-0.6167881,902,-632,497
2494.367,1.691406,-9.294291,-0.01436521,-0.320823,0.1938781,0.3334278,-0.6146576,889,-656,485
2494.371,1.695312,-9.299079,0.009576807,-0.3974375,0.2258361,0.3366236,-0.6146576,900,-634,535
2494.375,1.699219,-9.270349,-0.03351882,-0.4070143,0.2460761,0.3366236,-0.6103965,895,-647,516
2494.379,1.703125,-9.23683,0.08140286,-0.4309563,0.2641856,0.3408846,-0.6114618,871,-625,488
2494.383,1.707031,-9.275137,0.05267244,-0.4213795,0.2865561,0.3419499,-0.6114618,928,-632,531
2494.387,1.710938,-9.332598,0.05746084,-0.4596867,0.3110572,0.3440804,-0.6146576,922,-625,523
2494.391,1.714844,-9.270349,0.03351882,-0.4836287,0.3249057,0.3483415,-0.6189186,909,-674,481
2494.395,1.71875,-9.323021,0.09097966,-0.4213795,0.3398194,0.3515373,-0.6221144,909,-633,541
2494.398,1.722656,-9.351752,0.09576807,-0.4309563,0.3483415,0.3568636,-0.6274408,937,-620,535
2494.402,1.726562,-9.414001,0.08140286,-0.4979939,0.3557983,0.3621899,-0.6348976,926,-643,525
2494.406,1.730469,-9.47625,0.04309563,-0.4213795,0.3547331,0.3653857,-0.6412892,926,-619,499
2494.41,1.734375,-9.495404,0.04788403,-0.344765,0.350472,0.3611246,-0.6466155,915,-631,520
2494.414,1.738281,-9.572018,0.03830723,-0.296881,0.3462109,0.3568636,-0.6551376,916,-653,499
2494.418,1.742188,-9.624691,-0.02873042,-0.3639187,0.3376888,0.3536678,-0.6668555,935,-609,518
2494.422,1.746094,-9.643844,-0.1292869,-0.3543418,0.3291667,0.3536678,-0.6753777,925,-597,524
2494.426,1.75,-9.744401,-0.1053449,-0.3351882,0.3195793,0.3589941,-0.680704,878,-636,527
2494.43,1.753906,-9.792285,-0.1149217,-0.2873042,0.309992,0.3611246,-0.6892261,887,-628,500
2494.434,1.757812,-9.816227,-0.1867477,-0.2537854,0.2972088,0.3675162,-0.6945524,921,-629,488
2494.438,1.761719,-9.844957,-0.1484405,-0.2585738,0.294013,0.3728426,-0.7041398,900,-642,488
2494.441,1.765625,-9.83538,-0.1819593,-0.2298434,0.2886867,0.3813647,-0.7137272,920,-663,516
2494.445,1.769531,-9.792285,-0.2106897,-0.2442086,0.2876214,0.3877563,-0.721184,926,-659,516
2494.449,1.773438,-9.797073,-0.2298434,-0.3064578,0.294013,0.3994742,-0.7360977,939,-636,508
2494.453,1.777344,-9.730036,-0.2298434,-0.3639187,0.3025351,0.4186489,-0.7424893,911,-677,543
2494.457,1.78125,-9.696517,-0.1436521,-0.4596867,0.3121225,0.4314321,-0.7563377,914,-634,503
2494.461,1.785156,-9.639056,-0.1723825,-0.5410896,0.3281014,0.44315,-0.7669904,922,-631,500
2494.465,1.789062,-9.648633,-0.1484405,-0.5985504,0.3494067,0.4655206,-0.7829694,911,-629,518
2494.469,1.792969,-9.619902,-0.1149217,-0.6033388,0.3685815,0.4740427,-0.7968178,904,-635,482
2494.473,1.796875,-9.739612,0.004788403,-0.5363012,0.3973436,0.4814995,-0.8127968,941,-604,516
2494.477,1.800781,-9.701305,0.06224924,-0.593762,0.4261058,0.4836301,-0.8277105,920,-631,491
2494.48,1.804688,-9.744401,0.2537854,-0.6991069,0.4676511,0.4878911,-0.84582,924,-648,505
2494.484,1.808594,-9.773131,0.3639187,-0.7230489,0.5049353,0.4846953,-0.8617989,928,-661,497
2494.488,1.8125,-9.730036,0.5363012,-0.8236054,0.5368933,0.479369,-0.8692558,897,-637,495
2494.492,1.816406,-9.730036,0.7469909,-0.9241618,0.5699165,0.4804343,-0.8724516,910,-623,532
2494.496,1.820312,-9.71567,0.9050082,-0.9864111,0.6040049,0.4719121,-0.8745821,921,-651,481
2494.5,1.824219,-9.749189,1.144428,-1.144428,0.6231797,0.4708469,-0.8681905,896,-576,507
2494.504,1.828125,-9.725247,1.297657,-1.225831,0.6380934,0.46339,-0.8596684,889,-620,522
2494.508,1.832031,-9.744401,1.47004,-1.326388,0.6423545,0.4527374,-0.8522115,874,-646,491
2494.512,1.835938,-9.691728,1.61848,-1.446098,0.6380934,0.4495416,-0.8341021,932,-631,518
2494.516,1.839844,-9.672575,1.867477,-1.393425,0.6348976,0.4388889,-0.8159926,911,-621,529
2494.52,1.84375,-9.734824,2.073379,-1.431733,0.6253102,0.4324974,-0.793622,917,-610,476
2494.523,1.847656,-9.720459,2.293645,-1.604115,0.6178534,0.4293016,-0.773382,916,-640,510
2494.527,1.851562,-9.902418,2.633622,-1.661576,0.5976133,0.4324974,-0.7382283,933,-636,520
2494.531,1.855469,-10.08438,2.858677,-1.642422,0.5773733,0.4261058,-0.7147924,928,-608,487
2494.535,1.859375,-10.18493,3.155558,-1.666364,0.556068,0.4122573,-0.6956177,942,-659,497
2494.539,1.863281,-10.34295,3.414132,-1.608904,0.5283712,0.3984089,-0.6785734,907,-642,482
2494.543,1.867188,-10.41957,3.782839,-1.61848,0.4804343,0.3813647,-0.6519418,929,-636,502
2494.547,1.871094,-10.52012,4.036624,-1.675941,0.4356932,0.3653857,-0.6370281,917,-647,529
2494.551,1.875,-10.60152,4.204218,-1.728614,0.3856257,0.3440804,-0.6167881,946,-647,484
2494.555,1.878906,-10.59195,4.333505,-1.742979,0.330232,0.3153183,-0.5944176,905,-630,506
2494.559,1.882812,-10.52491,4.34787,-1.82917,0.2450108,0.2844256,-0.5635249,927,-617,498
2494.562,1.886719,-10.50576,4.328717,-1.853112,0.1842907,0.2609898,-0.5368933,882,-611,491
2494.566,1.890625,-10.4483,4.237737,-1.862689,0.1310275,0.241815,-0.5091964,880,-663,499
2494.57,1.894531,-10.39084,4.185065,-1.82917,0.08309063,0.2247708,-0.4772385,963,-612,459
2494.574,1.898438,-10.39562,3.964798,-1.747767,0.03834952,0.1928129,-0.4282363,914,-643,511
2494.578,1.902344,-10.26155,3.845088,-1.61848,0.02024002,0.1672465,-0.3877563,926,-589,463
2494.582,1.90625,-10.2807,3.667917,-1.493982,0.01704423,0.1363538,-0.3451457,903,-645,510
2494.586,1.910156,-10.23761,3.385401,-1.355118,0.02556635,0.1118528,-0.3004046,910,-649,508
2494.59,1.914062,-10.30943,3.08852,-1.187524,0.05645902,0.07563377,-0.237554,927,-658,530
2494.594,1.917969,-10.35253,2.839523,-1.024718,0.09374327,0.04900216,-0.1906823,964,-603,483
2494.598,1.921875,-10.46745,2.60968,-0.8331822,0.1406149,0.0149137,-0.149137,915,-640,517
2494.602,1.925781,-10.54885,2.408567,-0.6847417,0.1949434,-0.01597897,-0.1097222,945,-626,504
2494.605,1.929688,-10.57279,2.317587,-0.4261679,0.278034,-0.05006743,-0.06178534,910,-609,485
2494.609,1.933594,-10.69729,2.351106,-0.320823,0.3451457,-0.07350325,-0.03515373,912,-637,551
2494.613,1.9375,-10.73081,2.336741,-0.2633622,0.406931,-0.09054748,-0.00958738,901,-623,505
2494.617,1.941406,-10.92235,2.461239,-0.2346318,0.46339,-0.1022654,0.01704423,963,-615,483
2494.621,1.945312,-11.17613,2.719813,-0.09576807,0.5091964,-0.1193096,0.05432849,920,-630,501
2494.625,1.949219,-11.48259,2.892196,0.09576807,0.535828,-0.1395496,0.09161274,958,-627,510
2494.629,1.953125,-12.01889,3.112462,0.3399766,0.5656554,-0.165116,0.1331581,903,-635,497
2494.633,1.957031,-12.74673,3.428497,0.5554548,0.6093313,-0.2162487,0.1992044,936,-621,509
2494.637,1.960938,-13.40753,3.801992,0.794875,0.6508766,-0.2609898,0.2514024,933,-614,478
2494.641,1.964844,-14.05875,4.127604,1.082179,0.6913566,-0.3355583,0.3057309,934,-641,495
2494.645,1.96875,-14.60942,4.453215,1.393425,0.7222493,-0.42291,0.3621899,916,-615,505
2494.648,1.972656,-15.04995,4.721366,1.862689,0.7456851,-0.5454154,0.4303668,931,-614,506
2494.652,1.976562,-15.08826,4.860229,2.1883,0.7510114,-0.6466155,0.4719121,940,-639,517
2494.656,1.980469,-14.89672,4.898537,2.566584,0.741424,-0.7446198,0.5070659,924,-611,489
2494.66,1.984375,-14.50886,4.812345,2.719813,0.7222493,-0.8404936,0.5368933,956,-624,502
2494.664,1.988281,-13.73793,4.544195,2.87783,0.6934871,-0.9523464,0.5805691,932,-622,453
2494.668,1.992188,-13.11544,4.367024,3.031059,0.6636597,-1.023719,0.628506,911,-646,506
2494.672,1.996094,-12.30141,3.945644,3.122039,0.6050702,-1.057808,0.6977482,939,-591,507
2494.676,2,-11.54963,3.485958,3.313575,0.5496764,-1.067395,0.7914915,887,-618,517
2494.68,2.003906,-10.69729,3.141193,3.203442,0.5081311,-1.110006,0.9491506,911,-651,474
2494.684,2.007812,-10.16099,2.992752,2.715025,0.4974785,-1.161138,1.075917,908,-625,469
2494.688,2.011719,-9.706094,2.791639,2.432509,0.5017395,-1.221858,1.205879,935,-630,518
2494.691,2.015625,-9.23683,2.542642,2.015918,0.5219796,-1.281513,1.340103,895,-662,482
2494.695,2.019531,-8.571242,2.102109,1.604115,0.5464807,-1.325189,1.522263,895,-641,474
2494.699,2.023438,-8.250419,1.671153,1.369483,0.5443501,-1.331581,1.661813,910,-641,496
2494.703,2.027344,-7.833828,1.23062,0.6847417,0.5177185,-1.337972,1.796036,883,-666,514
2494.707,2.03125,-7.589619,0.7278373,0.05267244,0.4740427,-1.323058,1.928129,926,-648,498
2494.711,2.035156,-7.37893,0.01915361,-0.1819593,0.3856257,-1.27086,2.100701,906,-651,490
2494.715,2.039062,-7.40766,-0.5267244,-0.2920926,0.3472762,-1.233576,2.216815,911,-661,494
2494.719,2.042969,-7.532158,-0.9193734,-0.4596867,0.3717773,-1.202684,2.311624,918,-637,484
2494.723,2.046875,-7.685387,-1.283292,-0.3782839,0.4559332,-1.156877,2.386192,907,-623,497
2494.727,2.050781,-8.116344,-1.805228,-0.3399766,0.6135923,-1.104679,2.462891,914,-652,498
2494.73,2.054688,-8.523358,-2.102109,-0.4596867,0.7467504,-1.081243,2.507632,928,-668,494
2494.734,2.058594,-8.978256,-2.485181,-0.6751649,0.8777779,-1.054612,2.53746,894,-636,486
2494.738,2.0625,-9.44752,-2.686294,-0.9433155,0.9981528,-1.020523,2.5577,902,-652,483
2494.742,2.066406,-10.26155,-2.748544,-0.9576807,1.103614,-0.9704559,2.564091,886,-618,466
2494.746,2.070312,-10.95587,-2.451662,-0.8762778,1.137702,-0.942759,2.558765,889,-653,513
2494.75,2.074219,-11.74116,-2.03986,-0.6943185,1.139833,-0.9054748,2.540656,890,-674,542
2494.754,2.078125,-12.6366,-1.312023,-0.4596867,1.118528,-0.8596684,2.516155,905,-584,461
2494.758,2.082031,-13.92468,-0.3399766,-0.1388637,1.057808,-0.8021441,2.469283,885,-629,454
2494.762,2.085938,-14.83926,0.3399766,-0.07182605,0.994957,-0.7648599,2.409628,893,-638,457
2494.766,2.089844,-15.71554,1.053449,-0.1053449,0.9129316,-0.7222493,2.33719,890,-640,475
2494.77,2.09375,-16.62534,1.651999,-0.1867477,0.809601,-0.6732471,2.247708,902,-668,505
2494.773,2.097656,-17.52556,2.39899,-0.248997,0.6434197,-0.6061355,2.117746,889,-684,461
2494.777,2.101562,-18.03313,2.834735,-0.1963245,0.5006743,-0.5741775,2.025068,887,-647,477
2494.781,2.105469,-18.12889,3.126827,-0.06703765,0.3611246,-0.5645902,1.945173,867,-621,472
2494.785,2.109375,-17.74582,3.337517,0.009576807,0.1928129,-0.572047,1.879126,908,-614,457
2494.789,2.113281,-16.98925,3.318364,0,0.0777643,-0.5890912,1.875931,902,-646,488
2494.793,2.117188,-16.18001,3.122039,-0.07182605,-0.02130529,-0.6189186,1.911084,878,-651,496
2494.797,2.121094,-15.48091,2.786851,-0.05267244,-0.1161138,-0.6359629,1.979261,869,-668,480
2494.801,2.125,-14.85842,2.365471,-0.1053449,-0.2034655,-0.6402239,2.064482,911,-628,466
2494.805,2.128906,-14.25029,1.82917,-0.07661445,-0.2801645,-0.6338323,2.185923,849,-628,500
2494.809,2.132812,-13.98693,1.450886,-0.09097966,-0.3174488,-0.6306365,2.259426,851,-638,482
2494.812,2.136719,-13.69483,1.13964,-0.02394202,-0.334493,-0.6210492,2.321211,870,-656,455
2494.816,2.140625,-13.42668,0.9433155,-0.06703765,-0.3291667,-0.6178534,2.369148,850,-651,488
2494.82,2.144531,-13.06276,0.6703765,-0.07661445,-0.3078614,-0.5933523,2.410693,873,-623,516
2494.824,2.148438,-12.78025,0.4740519,-0.02873042,-0.2950782,-0.572047,2.425607,873,-664,468
2494.828,2.152344,-12.52167,0.3256114,-0.009576807,-0.2897519,-0.5603291,2.425607,868,-648,512
2494.832,2.15625,-12.26789,0.2059013,-0.07661445,-0.3046656,-0.5432849,2.414954,864,-674,457
2494.836,2.160156,-11.83214,0,-0.1436521,-0.3515373,-0.5060006,2.387258,888,-635,502
2494.84,2.164062,-11.59751,0.009576807,-0.1867477,-0.4090615,-0.4857606,2.358495,851,-638,480
2494.844,2.167969,-11.34852,-0.05267244,-0.2681506,-0.4857606,-0.4783037,2.324407,838,-670,455
2494.848,2.171875,-11.01333,-0.04309563,-0.344765,-0.5699165,-0.4825648,2.286057,870,-651,468
2494.852,2.175781,-10.67814,-0.1053449,-0.3591302,-0.6860303,-0.4708469,2.231729,852,-636,483
2494.855,2.179688,-10.43393,-0.01915361,-0.1005565,-0.7787083,-0.4474111,2.193379,839,-601,497
2494.859,2.183594,-10.22324,0.01436521,0.04788403,-0.8671253,-0.4388889,2.15716,862,-624,494
2494.863,2.1875,-10.0317,0.05746084,0.09576807,-0.9491506,-0.4452805,2.122007,857,-588,485
2494.867,2.191406,-9.821015,0.1915361,0.03830723,-1.050351,-0.4527374,2.080461,865,-639,482
2494.871,2.195312,-9.730036,0.1819593,-0.01436521,-1.102549,-0.4282363,2.05383,863,-659,455
2494.875,2.199219,-9.600749,0.2298434,-0.08140286,-1.144094,-0.406931,2.024002,848,-647,488
2494.879,2.203125,-9.519346,0.1771709,0.02394202,-1.173921,-0.3973436,1.997371,880,-650,463
2494.883,2.207031,-9.538499,0.1484405,0.1532289,-1.200553,-0.3834952,1.95476,874,-639,474
2494.887,2.210938,-9.552865,0.04788403,0.2777274,-1.218663,-0.3781689,1.923868,873,-641,503
2494.891,2.214844,-9.56723,-0.05746084,0.320823,-1.22825,-0.3739078,1.888714,829,-672,499
2494.895,2.21875,-9.610325,-0.1867477,0.3160346,-1.235707,-0.3802994,1.85143,835,-653,499
2494.898,2.222656,-9.562441,-0.2537854,0.3303998,-1.232511,-0.3824299,1.79071,831,-652,451
2494.902,2.226562,-9.59596,-0.3543418,0.2873042,-1.221858,-0.3845605,1.748099,869,-661,491
2494.906,2.230469,-9.552865,-0.344765,0.2681506,-1.206945,-0.3984089,1.696966,869,-620,475
2494.91,2.234375,-9.394847,-0.4213795,0.3160346,-1.188835,-0.4016047,1.644768,874,-625,476
2494.914,2.238281,-9.2081,-0.5602432,0.3399766,-1.166465,-0.4016047,1.575526,850,-651,460
2494.918,2.242188,-9.078813,-0.5746084,0.3830723,-1.14942,-0.4122573,1.530785,829,-660,463
2494.922,2.246094,-8.868123,-0.6607997,0.3303998,-1.12705,-0.4282363,1.484979,844,-646,496
2494.926,2.25,-8.676587,-0.7613561,0.2681506,-1.098288,-0.4474111,1.443433,835,-607,465
2494.93,2.253906,-8.303091,-0.7278373,0.1771709,-1.04609,-0.4410195,1.391235,877,-650,487
2494.934,2.257812,-8.015787,-0.7278373,0.02873042,-1.003479,-0.42291,1.353951,859,-698,498
2494.938,2.261719,-7.757213,-0.7661445,-0.1292869,-0.9502159,-0.4133226,1.325189,840,-624,472
2494.941,2.265625,-7.508216,-0.8379706,-0.320823,-0.8916263,-0.4090615,1.287905,854,-615,473
2494.945,2.269531,-7.16824,-0.9193734,-0.5746084,-0.8074704,-0.3621899,1.245294,837,-631,424
2494.949,2.273438,-6.847417,-1.063026,-0.8858546,-0.7424893,-0.314253,1.20801,828,-646,461
2494.953,2.277344,-6.646304,-1.144428,-1.082179,-0.6764429,-0.2588593,1.16966,800,-649,473
2494.957,2.28125,-6.382942,-1.297657,-1.302446,-0.6093313,-0.2087918,1.12705,844,-636,456
2494.961,2.285156,-6.229713,-1.446098,-1.335965,-0.5379585,-0.1416802,1.059938,874,-640,493
2494.965,2.289062,-6.138733,-1.685518,-1.173159,-0.5060006,-0.09800433,1.002414,847,-636,499
2494.969,2.292969,-6.076484,-1.872266,-0.9624691,-0.4932174,-0.05858954,0.9416938,817,-622,501
2494.973,2.296875,-6.062119,-2.006341,-0.7086837,-0.4942827,-0.04261058,0.8735168,857,-627,471
2494.977,2.300781,-6.110003,-2.212242,-0.09097966,-0.5049353,-0.06498113,0.7744472,872,-643,507
2494.98,2.304688,-6.162675,-2.298434,0.2059013,-0.5166533,-0.1022654,0.6924219,803,-646,483
2494.984,2.308594,-6.186617,-2.231396,0.3734955,-0.515588,-0.1363538,0.6125271,814,-610,473
2494.988,2.3125,-6.291962,-2.15957,0.4501099,-0.5017395,-0.1555286,0.5326322,826,-629,482
2494.992,2.316406,-6.272808,-2.011129,0.4788403,-0.46339,-0.1576591,0.4335626,833,-628,483
2494.996,2.320312,-6.291962,-1.929727,0.545878,-0.4282363,-0.1576591,0.3632552,825,-620,478
2495,2.324219,-6.29675,-1.795651,0.6368576,-0.3973436,-0.1619202,0.2972088,837,-621,470
2495.004,2.328125,-6.272808,-1.733402,0.8858546,-0.3749731,-0.169377,0.2098571,845,-621,483
2495.008,2.332031,-6.335058,-1.642422,1.120486,-0.370712,-0.1842907,0.1438107,822,-660,472
2495.012,2.335938,-6.339846,-1.484405,1.206678,-0.3653857,-0.1981392,0.07563377,795,-647,429
2495.016,2.339844,-6.344634,-1.436521,1.158794,-0.3483415,-0.2173139,0.008522115,844,-615,497
2495.02,2.34375,-6.244078,-1.206678,0.8762778,-0.2961435,-0.2205097,-0.0777643,848,-660,504
2495.023,2.347656,-6.172252,-0.9816227,0.794875,-0.241815,-0.1970739,-0.1352886,827,-638,502
2495.027,2.351562,-6.143521,-0.818817,0.7182605,-0.1789644,-0.1533981,-0.1874865,851,-659,469
2495.031,2.355469,-6.181829,-0.7182605,0.7038953,-0.1033307,-0.1033307,-0.2428803,840,-626,493
2495.035,2.359375,-6.301539,-0.4213795,0.9481039,0.003195793,-0.03834952,-0.314253,848,-664,450
2495.039,2.363281,-6.349423,-0.2106897,1.192312,0.07669904,-0.005326322,-0.3632552,868,-667,471
2495.043,2.367188,-6.459556,-0.06703765,1.455675,0.1395496,0.01171791,-0.4133226,839,-609,489
2495.047,2.371094,-6.564901,0.1867477,1.757344,0.1800297,0.0149137,-0.4580637,827,-673,463
2495.051,2.375,-6.761225,0.4022259,2.135628,0.1970739,-0.006391587,-0.5219796,817,-685,469
2495.055,2.378906,-6.880936,0.5793968,2.384625,0.1778992,-0.02556635,-0.5688512,855,-656,483
2495.059,2.382812,-6.952762,0.914585,2.628833,0.1363538,-0.04048005,-0.6135923,813,-610,492
2495.062,2.386719,-7.043741,1.278504,2.839523,0.06711166,-0.04687164,-0.6657903,843,-662,482
2495.066,2.390625,-7.19697,1.70946,3.174711,-0.04048005,-0.04687164,-0.7307714,845,-644,464
2495.07,2.394531,-7.335834,2.06859,3.5099,-0.112918,-0.04580637,-0.7797736,856,-635,491
2495.074,2.398438,-7.445967,2.341529,3.974375,-0.1789644,-0.05432849,-0.8245147,828,-641,470
2495.078,2.402344,-7.599196,2.796428,4.266467,-0.2450108,-0.07350325,-0.8724516,824,-640,475
2495.082,2.40625,-7.8865,3.29921,4.31914,-0.3366236,-0.1107875,-0.9374327,853,-640,484
2495.086,2.410156,-8.001422,3.754108,4.31914,-0.3994742,-0.1438107,-0.9832391,838,-668,498
2495.09,2.414062,-8.178593,4.362235,4.405331,-0.4772385,-0.1789644,-1.02798,831,-654,490
2495.094,2.417969,-8.303091,5.027823,4.424485,-0.5656554,-0.201335,-1.067395,829,-655,471
2495.098,2.421875,-8.303091,6.086061,3.974375,-0.6902914,-0.2258361,-1.110006,859,-637,442
2495.102,2.425781,-8.370129,6.852205,3.562572,-0.7755125,-0.2258361,-1.138768,854,-639,462
2495.105,2.429688,-8.360552,7.479486,3.289633,-0.8532768,-0.2109224,-1.160073,845,-660,464
2495.109,2.433594,-8.303091,8.00621,3.102885,-0.9331716,-0.1917476,-1.170726,827,-643,468
2495.113,2.4375,-8.250419,8.552088,3.026271,-1.04822,-0.169377,-1.170726,836,-650,481
2495.117,2.441406,-8.164228,8.892065,2.973598,-1.121723,-0.1565939,-1.162203,848,-637,489
2495.121,2.445312,-8.121132,9.074024,2.992752,-1.180313,-0.1363538,-1.144094,817,-618,502
2495.125,2.449219,-8.044518,9.241618,2.978387,-1.215467,-0.108657,-1.112136,853,-624,493
2495.129,2.453125,-7.905654,9.471462,2.767697,-1.205879,-0.06072007,-1.063134,803,-632,484
2495.133,2.457031,-7.800309,9.581595,2.389413,-1.150486,-0.01278317,-1.02585,820,-663,483
2495.137,2.460938,-7.742848,9.615114,1.900996,-1.040763,0.04687164,-0.9832391,854,-647,480
2495.141,2.464844,-7.872135,9.576807,1.623269,-0.8799084,0.1065264,-0.9406285,855,-663,472
2495.145,2.46875,-8.025364,9.351752,1.302446,-0.6253102,0.1906823,-0.8841695,829,-648,486
2495.148,2.472656,-8.30788,9.342175,0.9768343,-0.4197142,0.2727077,-0.8404936,885,-624,466
2495.152,2.476562,-8.5473,9.251195,0.7134721,-0.2194445,0.3568636,-0.7850999,865,-625,469
2495.156,2.480469,-8.863335,9.08839,0.4932055,-0.02237055,0.4548679,-0.7190535,846,-635,469
2495.16,2.484375,-9.370905,8.973468,0.2633622,0.2141182,0.5954828,-0.608266,829,-620,468
2495.164,2.488281,-9.753978,8.844181,0.3974375,0.3685815,0.6860303,-0.5091964,876,-621,487
2495.168,2.492188,-10.06044,8.796297,0.7182605,0.5038701,0.7669904,-0.4005394,881,-630,502
2495.172,2.496094,-10.33337,8.892065,1.158794,0.6327671,0.809601,-0.2833603,842,-625,462
2495.176,2.5,-10.7356,9.002198,2.001553,0.7946873,0.8085357,-0.1246359,832,-621,475
2495.18,2.503906,-10.80743,9.069236,2.42772,0.9235843,0.7637946,-0.01704423,826,-657,516
2495.184,2.507812,-10.70687,9.227253,2.619257,1.070591,0.7137272,0.07989483,853,-653,499
2495.188,2.511719,-10.46745,9.428366,2.580949,1.237837,0.6732471,0.1597897,878,-618,455
2495.191,2.515625,-9.720459,9.471462,2.06859,1.487109,0.6838998,0.2514024,851,-638,462
2495.195,2.519531,-9.054871,9.380482,1.733402,1.677791,0.7435546,0.3110572,851,-659,476
2495.199,2.523438,-8.446743,9.184158,1.225831,1.852495,0.8266452,0.3675162,861,-638,441
2495.203,2.527344,-7.838616,8.829816,0.7565677,1.996306,0.9534117,0.4207795,893,-647,500
2495.207,2.53125,-7.010222,8.183381,-0.1053449,2.139051,1.192031,0.4772385,848,-615,476
2495.211,2.535156,-6.579266,7.671022,-0.3639187,2.202967,1.411475,0.5102617,843,-620,473
2495.215,2.539062,-6.449979,7.019799,-0.4979939,2.202967,1.596831,0.5241101,858,-616,521
2495.219,2.542969,-6.732495,6.359,-1.120486,2.09431,1.659682,0.515588,870,-620,490
2495.223,2.546875,-8.058883,4.577714,-3.040636,1.720402,1.460478,0.4378237,852,-635,489
2495.227,2.550781,-9.337386,2.212242,-3.682282,1.287905,1.216532,0.330232,878,-664,488
2495.23,2.554688,-10.97502,-0.5171476,-3.117251,0.7052051,1.102549,0.2002697,885,-618,445
2495.234,2.558594,-13.30697,-3.505111,-1.01993,-0.09374327,1.214401,0.06817692,878,-648,469
2495.238,2.5625,-16.87433,-6.50744,2.863465,-1.456216,1.591505,-0.1331581,874,-651,471
2495.242,2.566406,-19.55105,-7.192182,5.956774,-2.400041,1.814145,-0.3856257,837,-651,485
2495.246,2.570312,-21.92131,-6.454768,8.858546,-2.941195,1.812015,-0.7595335,866,-640,530
2495.25,2.574219,-22.93645,-4.34787,11.57836,-2.995524,1.479652,-1.216532,870,-652,522
2495.254,2.578125,-22.16073,-0.2154781,14.19762,-2.49911,0.5251754,-1.797101,863,-628,493
2495.258,2.582031,-21.32755,2.619257,14.50886,-2.001632,-0.330232,-2.048504,853,-619,483
2495.262,2.585938,-19.95328,4.946421,13.08671,-1.604288,-0.9523464,-2.0762,822,-631,485
2495.266,2.589844,-17.3819,6.919243,9.797073,-1.323058,-1.10681,-1.930259,881,-652,527
2495.27,2.59375,-12.33972,9.404424,2.973598,-1.026915,-0.6210492,-1.567004,856,-626,454
2495.273,2.597656,-8.892065,11.13304,-3.150769,-0.829841,-0.04367584,-1.171791,835,-663,481
2495.277,2.601562,-6.459556,11.68849,-7.666234,-0.6711166,0.4644553,-0.6838998,865,-655,526
2495.281,2.605469,-5.425261,10.32859,-10.47703,-0.5677859,0.7904262,-0.1629855,844,-628,499
2495.285,2.609375,-6.019023,6.282385,-10.37168,-0.4559332,0.978978,0.4676511,833,-630,515
2495.289,2.613281,-7.311892,2.269703,-7.943961,-0.4484763,1.058873,0.8277105,868,-630,482
2495.293,2.617188,-8.743624,-1.991976,-4.458003,-0.5656554,1.121723,1.081243,838,-664,467
2495.297,2.621094,-10.12268,-5.693412,-1.11091,-0.813862,1.095092,1.229315,858,-661,469
2495.301,2.625,-11.03248,-9.155427,0.8092402,-1.164334,0.8064052,1.262338,863,-677,468
2495.305,2.628906,-11.11867,-10.64462,0.004788403,-1.239968,0.5049353,1.171791,845,-601,492
2495.309,2.632812,-10.63504,-11.49696,-1.723825,-1.080178,0.3163835,0.9970875,858,-654,500
2495.312,2.636719,-9.744401,-11.93749,-3.198653,-0.7254451,0.3110572,0.7680557,847,-664,509
2495.316,2.640625,-8.504204,-12.13381,-3.620033,-0.1352886,0.4783037,0.4186489,828,-653,503
2495.32,2.644531,-7.771579,-12.15776,-3.485958,0.2673814,0.6061355,0.1459412,885,-626,461
2495.324,2.648438,-7.445967,-11.8513,-3.490746,0.6146576,0.6668555,-0.1502023,820,-646,499
2495.328,2.652344,-7.656657,-11.18092,-3.610456,0.9182579,0.6636597,-0.4825648,874,-642,489
2495.332,2.65625,-8.135497,-9.710882,-4.242525,1.260208,0.6274408,-0.9651296,868,-659,490
2495.336,2.660156,-8.63828,-8.370129,-5.243302,1.461543,0.624245,-1.314536,838,-644,473
2495.34,2.664062,-9.035717,-7.072472,-5.717354,1.609615,0.664725,-1.634116,863,-634,513
2495.344,2.667969,-9.059659,-5.923255,-5.501875,1.659682,0.7297061,-1.901497,866,-658,492
2495.348,2.671875,-8.99741,-4.141969,-4.496311,1.558482,0.773382,-2.169944,888,-657,494
2495.352,2.675781,-8.796297,-2.705448,-3.648763,1.418932,0.7627293,-2.289253,854,-640,459
2495.355,2.679688,-8.714894,-1.130063,-2.791639,1.274056,0.7360977,-2.33506,864,-634,478
2495.359,2.683594,-8.781932,0.2873042,-1.92015,1.144094,0.7179882,-2.312689,870,-642,488
2495.363,2.6875,-9.155427,1.92015,-1.240196,1.023719,0.7190535,-2.205097,843,-634,456
2495.367,2.691406,-9.629479,2.868254,-0.7326257,0.9640643,0.716923,-2.079396,869,-626,452
2495.371,2.695312,-10.26634,3.663129,-0.07661445,0.9139969,0.7126619,-1.93452,892,-634,508
2495.375,2.699219,-11.14261,4.223372,0.6607997,0.8383631,0.6902914,-1.777926,858,-597,492
2495.379,2.703125,-11.88003,4.707,1.134852,0.7691209,0.6295713,-1.557417,835,-588,475
2495.383,2.707031,-12.44506,4.845864,1.355118,0.6892261,0.5635249,-1.397627,887,-653,515
2495.387,2.710938,-12.88559,5.066131,1.479617,0.5997439,0.479369,-1.251686,898,-614,543
2495.391,2.714844,-12.95263,5.147534,1.345541,0.4719121,0.3536678,-1.08657,890,-633,473
2495.395,2.71875,-12.67969,5.075708,1.053449,0.3675162,0.2556635,-0.9885654,855,-649,506
2495.398,2.722656,-12.12903,4.836287,0.4501099,0.2609898,0.181095,-0.9139969,875,-631,486
2495.402,2.726562,-11.42034,4.434061,-0.08140286,0.1459412,0.1331581,-0.8628642,870,-651,476
2495.406,2.730469,-10.49139,3.682282,-0.7374141,-0.01917476,0.1171791,-0.8213189,864,-641,486
2495.41,2.734375,-9.892841,3.05979,-1.058237,-0.1363538,0.128897,-0.8021441,854,-621,494
2495.414,2.738281,-9.380482,2.590526,-1.235408,-0.2332929,0.1459412,-0.7904262,871,-620,531
2495.418,2.742188,-9.002198,2.063802,-1.35033,-0.3089267,0.1544633,-0.7861652,877,-637,493
2495.422,2.746094,-8.504204,1.369483,-1.441309,-0.3717773,0.1587244,-0.7914915,910,-635,485
2495.426,2.75,-8.231265,0.8475474,-1.556231,-0.3920173,0.1587244,-0.8053399,809,-651,457
2495.43,2.753906,-7.958326,0.4165911,-1.628057,-0.3856257,0.1608549,-0.829841,897,-640,517
2495.434,2.757812,-7.733271,-0.06224924,-1.757344,-0.3568636,0.1736381,-0.8575379,863,-655,460
2495.438,2.761719,-7.508216,-0.5985504,-1.968034,-0.2865561,0.1917476,-0.902279,893,-579,508
2495.441,2.765625,-7.412448,-1.024718,-1.987187,-0.2141182,0.2194445,-0.9395632,880,-647,514
2495.445,2.769531,-7.326257,-1.326388,-2.073379,-0.1278317,0.2450108,-0.9800433,869,-653,507
2495.449,2.773438,-7.383718,-1.599327,-2.054225,-0.03195793,0.2822951,-1.018393,868,-654,521
2495.453,2.777344,-7.541735,-1.833958,-2.149993,0.108657,0.3259709,-1.069525,843,-617,481
2495.457,2.78125,-7.829039,-1.929727,-2.097321,0.2247708,0.3568636,-1.10894,845,-646,474
2495.461,2.785156,-8.12592,-2.001553,-1.982399,0.3462109,0.3856257,-1.135572,855,-621,499
2495.465,2.789062,-8.418013,-1.929727,-1.843535,0.4665858,0.3994742,-1.161138,868,-642,503
2495.469,2.792969,-8.901642,-1.58975,-1.570596,0.6306365,0.406931,-1.174987,844,-642,480
2495.473,2.796875,-9.078813,-1.335965,-1.403002,0.7510114,0.4079963,-1.176052,844,-648,508
2495.477,2.800781,-9.342175,-0.9002198,-1.302446,0.8639295,0.4037352,-1.16753,885,-645,499
2495.48,2.804688,-9.490615,-0.5171476,-1.197101,0.9672601,0.3973436,-1.148355,873,-618,515
2495.484,2.808594,-9.634267,0.05746084,-1.000776,1.091896,0.3941478,-1.114267,862,-642,490
2495.488,2.8125,-9.653421,0.4405331,-0.9097966,1.16966,0.3749731,-1.084439,919,-655,487
2495.492,2.816406,-9.629479,0.7613561,-0.794875,1.227185,0.3621899,-1.049285,854,-613,510
2495.496,2.820312,-9.562441,1.039084,-0.7086837,1.265534,0.3526025,-1.015197,858,-622,511
2495.5,2.824219,-9.581595,1.37906,-0.5554548,1.285774,0.3440804,-0.9683254,910,-616,494
2495.504,2.828125,-9.504981,1.61848,-0.4309563,1.282578,0.330232,-0.938498,871,-638,463
2495.508,2.832031,-9.543288,1.766921,-0.3591302,1.263404,0.309992,-0.9182579,873,-641,491
2495.512,2.835938,-9.552865,1.977611,-0.3256114,1.22825,0.294013,-0.9033442,893,-639,455
2495.516,2.839844,-9.524134,2.231396,-0.1628057,1.157942,0.2716424,-0.9001484,864,-639,480
2495.52,2.84375,-9.528923,2.341529,-0.07182605,1.092961,0.257794,-0.8980179,882,-628,501
2495.523,2.847656,-9.466673,2.475605,0.1628057,1.017328,0.2460761,-0.8990832,867,-641,510
2495.527,2.851562,-9.409213,2.60968,0.2011129,0.9416938,0.2364887,-0.9012137,860,-634,504
2495.531,2.855469,-9.294291,2.715025,0.1723825,0.8383631,0.2300971,-0.9033442,883,-622,475
2495.535,2.859375,-9.217676,2.738967,0.2011129,0.7637946,0.2226403,-0.902279,887,-640,499
2495.539,2.863281,-9.078813,2.75812,0.05267244,0.6881608,0.2151834,-0.9012137,927,-602,506
2495.543,2.867188,-8.99741,2.753332,-0.02394202,0.6093313,0.2183792,-0.8937569,860,-639,493
2495.547,2.871094,-8.848969,2.571373,-0.05267244,0.5049353,0.2269013,-0.8777779,893,-625,490
2495.551,2.875,-8.719682,2.48997,-0.2394202,0.4261058,0.2354234,-0.8639295,865,-639,499
2495.555,2.878906,-8.748413,2.264915,-0.3495534,0.3536678,0.241815,-0.8490158,886,-613,500
2495.559,2.882812,-8.705317,2.092532,-0.4022259,0.2844256,0.2545982,-0.8341021,874,-625,508
2495.562,2.886719,-8.676587,1.747767,-0.4884171,0.1981392,0.273773,-0.8159926,891,-619,517
2495.566,2.890625,-8.662222,1.541866,-0.5075708,0.1352886,0.2993393,-0.8042746,903,-605,519
2495.57,2.894531,-8.700529,1.312023,-0.4884171,0.08415589,0.3217099,-0.8000136,906,-628,485
2495.574,2.898438,-8.825027,1.120486,-0.4357447,0.04474111,0.3355583,-0.793622,918,-631,489
2495.578,2.902344,-8.954314,0.8858546,-0.3303998,0.003195793,0.3515373,-0.793622,886,-611,517
2495.582,2.90625,-9.059659,0.7278373,-0.3016694,-0.02237055,0.3643204,-0.7989483,902,-630,473
2495.586,2.910156,-9.165004,0.6368576,-0.3160346,-0.04900216,0.386691,-0.8053399,885,-613,482
2495.59,2.914062,-9.270349,0.5363012,-0.2777274,-0.07030745,0.4037352,-0.8213189,905,-603,504
2495.594,2.917969,-9.385271,0.4644751,-0.2825158,-0.0958738,0.4293016,-0.8372978,867,-648,495
2495.598,2.921875,-9.524134,0.4022259,-0.272939,-0.1097222,0.4293016,-0.8522115,880,-644,506
2495.602,2.925781,-9.615114,0.4357447,-0.2681506,-0.1161138,0.4239752,-0.8649947,893,-645,498
2495.605,2.929688,-9.725247,0.4740519,-0.2681506,-0.1118528,0.4250405,-0.8831042,916,-623,487
2495.609,2.933594,-9.782708,0.5410896,-0.2873042,-0.0958738,0.4293016,-0.8958874,911,-591,476
2495.613,2.9375,-9.801862,0.6703765,-0.2585738,-0.07669904,0.4314321,-0.9054748,874,-622,468
2495.617,2.941406,-9.821015,0.6895301,-0.1771709,-0.0628506,0.4378237,-0.9097358,892,-608,495
2495.621,2.945312,-9.840169,0.7805097,-0.1819593,-0.05326322,0.4410195,-0.9108011,891,-622,544
2495.625,2.949219,-9.710882,0.7757213,-0.1771709,-0.04580637,0.4388889,-0.9033442,900,-613,462
2495.629,2.953125,-9.667786,0.7613561,-0.2059013,-0.03941478,0.4388889,-0.8916263,908,-596,488
2495.633,2.957031,-9.629479,0.7422025,-0.2298434,-0.02663161,0.4346279,-0.8809737,899,-606,492
2495.637,2.960938,-9.572018,0.7374141,-0.2394202,-0.01171791,0.4303668,-0.8649947,929,-627,503
2495.641,2.964844,-9.466673,0.6272808,-0.1819593,0.01384844,0.4197142,-0.8415589,876,-588,494
2495.645,2.96875,-9.423578,0.521936,-0.2346318,0.02876214,0.4079963,-0.8223841,887,-599,532
2495.648,2.972656,-9.346963,0.4213795,-0.3064578,0.05113269,0.3962784,-0.8074704,892,-599,502
2495.652,2.976562,-9.284714,0.3399766,-0.3926491,0.07669904,0.386691,-0.793622,920,-631,496
2495.656,2.980469,-9.179369,0.2154781,-0.4788403,0.1150486,0.386691,-0.7755125,891,-601,500
2495.66,2.984375,-9.131485,0.06703765,-0.5746084,0.1470065,0.3952131,-0.7701862,897,-637,472
2495.664,2.988281,-9.078813,0.07661445,-0.6799533,0.1747034,0.3962784,-0.7637946,902,-658,510
2495.668,2.992188,-9.069236,-0.08140286,-0.7996634,0.1992044,0.3994742,-0.757403,884,-606,469
2495.672,2.996094,-9.021352,-0.1388637,-0.8714894,0.2258361,0.4058658,-0.753142,864,-642,505
2495.676,3,-9.08839,-0.1819593,-0.9385271,0.2492719,0.4143879,-0.7510114,893,-613,506
2495.68,3.003906,-9.074024,-0.3112462,-0.9720459,0.2716424,0.4207795,-0.7478156,904,-655,509
2495.684,3.007812,-9.155427,-0.2825158,-0.9911995,0.2929477,0.427171,-0.7446198,924,-604,487
2495.688,3.011719,-9.275137,-0.3112462,-0.914585,0.3174488,0.4314321,-0.7403588,911,-610,542
2495.691,3.015625,-9.44752,-0.1963245,-0.8858546,0.3408846,0.4399542,-0.7329019,927,-643,494
2495.695,3.019531,-9.624691,-0.1388637,-0.914585,0.370712,0.4442153,-0.7360977,906,-614,516
2495.699,3.023438,-9.787496,-0.09097966,-0.8810662,0.4005394,0.4474111,-0.741424,907,-624,550
2495.703,3.027344,-9.89763,0.1005565,-0.914585,0.4367584,0.4538026,-0.7435546,877,-632,460
2495.707,3.03125,-9.969456,0.225055,-0.8954314,0.46339,0.4506069,-0.7456851,895,-601,496
2495.711,3.035156,-10.06522,0.3926491,-0.9193734,0.4868258,0.4538026,-0.7478156,909,-614,529
2495.715,3.039062,-10.21366,0.521936,-0.9289502,0.5102617,0.4569984,-0.7510114,944,-628,498
2495.719,3.042969,-10.35253,0.7709329,-1.015142,0.5411543,0.4569984,-0.7520767,923,-639,495
2495.723,3.046875,-10.4866,0.9672575,-1.13964,0.5550028,0.4538026,-0.7552725,897,-628,484
2495.727,3.050781,-10.54406,1.211466,-1.067814,0.5645902,0.4442153,-0.7563377,871,-639,530
2495.73,3.054688,-10.66856,1.37906,-1.101333,0.5688512,0.4218447,-0.753142,898,-635,499
2495.734,3.058594,-10.80264,1.671153,-1.221043,0.5731123,0.4048005,-0.7456851,850,-667,504
2495.738,3.0625,-10.87925,1.872266,-1.47004,0.5752428,0.3920173,-0.7339672,935,-594,481
2495.742,3.066406,-10.89362,2.049437,-1.642422,0.5709817,0.3877563,-0.7201188,957,-648,506
2495.746,3.070312,-10.90798,2.317587,-1.628057,0.556068,0.386691,-0.7041398,924,-622,473
2495.75,3.074219,-10.85052,2.432509,-1.493982,0.5411543,0.3728426,-0.6902914,927,-632,532
2495.754,3.078125,-10.83616,2.542642,-1.340753,0.5262406,0.3398194,-0.680704,918,-605,489
2495.758,3.082031,-10.71645,2.695871,-1.278504,0.515588,0.3078614,-0.6743124,878,-646,523
2495.762,3.085938,-10.52491,2.839523,-1.407791,0.4985438,0.2833603,-0.6625945,919,-594,471
2495.766,3.089844,-10.40041,2.911349,-1.47004,0.4729774,0.2844256,-0.6508766,907,-605,518
2495.77,3.09375,-10.30464,2.896984,-1.431733,0.427171,0.2844256,-0.6359629,935,-625,535
2495.773,3.097656,-10.15142,2.901772,-1.417367,0.3771036,0.278034,-0.6178534,894,-647,474
2495.777,3.101562,-10.05086,2.892196,-1.355118,0.3110572,0.2599245,-0.5965481,926,-608,513
2495.781,3.105469,-10.00776,2.978387,-1.359907,0.2727077,0.2482066,-0.5773733,891,-623,531
2495.785,3.109375,-9.988609,2.96881,-1.28808,0.2332929,0.237554,-0.5592638,914,-595,507
2495.789,3.113281,-9.945514,2.954445,-1.206678,0.201335,0.2332929,-0.5368933,864,-605,501
2495.793,3.117188,-9.888053,2.853888,-1.16837,0.181095,0.2151834,-0.5102617,904,-573,479
2495.797,3.121094,-9.921572,2.810793,-1.240196,0.1715076,0.1938781,-0.4889564,906,-623,499
2495.801,3.125,-9.935937,2.743755,-1.221043,0.1715076,0.1778992,-0.4644553,893,-600,505
2495.805,3.128906,-10.02692,2.695871,-1.182736,0.1757686,0.1672465,-0.4399542,881,-652,498
2495.809,3.132812,-10.07001,2.686294,-1.158794,0.201335,0.1310275,-0.406931,919,-649,498
2495.812,3.136719,-10.11311,2.662352,-1.130063,0.2300971,0.09267801,-0.3834952,917,-657,487
2495.816,3.140625,-10.1993,2.75812,-1.192312,0.2641856,0.05432849,-0.3600594,891,-629,511
2495.82,3.144531,-10.21845,2.825158,-1.158794,0.3067962,0.01917476,-0.3376888,902,-614,503
2495.824,3.148438,-10.2807,2.94008,-1.407791,0.366451,-0.01597897,-0.3078614,933,-614,476
2495.828,3.152344,-10.31422,3.246537,-1.565808,0.4079963,-0.04261058,-0.2844256,914,-637,494
2495.832,3.15625,-10.30464,3.466804,-1.623269,0.4399542,-0.06711166,-0.2567287,917,-624,506
2495.836,3.160156,-10.49139,3.797204,-1.661576,0.4548679,-0.0809601,-0.2247708,931,-626,509
2495.84,3.164062,-10.7787,4.309563,-1.537077,0.4495416,-0.08841695,-0.1640507,913,-596,490
2495.844,3.167969,-11.29584,4.67827,-1.441309,0.4324974,-0.09161274,-0.1012001,893,-617,505
2495.848,3.171875,-11.89439,5.133168,-1.307234,0.4090615,-0.1075917,-0.02450108,934,-570,482
2495.852,3.175781,-12.65575,5.48751,-0.9672575,0.3771036,-0.1416802,0.05965481,900,-644,520
2495.855,3.179688,-13.66131,5.90889,-0.3734955,0.3238404,-0.2119876,0.185356,883,-637,498
2495.859,3.183594,-14.25508,6.124368,0.2154781,0.2759035,-0.2759035,0.2822951,891,-625,503
2495.863,3.1875,-14.77222,6.200982,0.890643,0.2269013,-0.3408846,0.3749731,888,-601,490
2495.867,3.191406,-15.01643,6.220136,1.508347,0.165116,-0.4239752,0.4580637,919,-610,512
2495.871,3.195312,-14.8632,6.019023,2.006341,0.06498113,-0.5219796,0.5400891,865,-619,483
2495.875,3.199219,-14.43704,5.693412,2.173935,-0.01917476,-0.5912218,0.5890912,901,-647,519
2495.879,3.203125,-13.77145,5.315128,2.102109,-0.1012001,-0.6540724,0.6338323,908,-576,511
2495.883,3.207031,-13.03403,4.620809,2.37026,-0.1800297,-0.6956177,0.6934871,913,-620,526
2495.887,3.210938,-11.95664,3.634398,2.360683,-0.2844256,-0.7424893,0.7914915,904,-652,506
2495.891,3.214844,-11.32457,2.652775,2.221819,-0.3323625,-0.8191884,0.882039,894,-587,495
2495.895,3.21875,-10.5297,1.881843,1.810016,-0.3845605,-0.8831042,0.9768475,928,-620,528
2495.898,3.222656,-9.840169,0.9193734,1.742979,-0.4463458,-0.9182579,1.083374,898,-591,491
2495.902,3.226562,-8.896853,0,1.810016,-0.4825648,-0.9651296,1.236772,895,-620,475
2495.906,3.230469,-8.303091,-0.4118027,2.011129,-0.4303668,-0.9821738,1.359277,872,-587,478
2495.91,3.234375,-7.85777,-0.6560113,2.087744,-0.2950782,-1.000283,1.47113,901,-639,481
2495.914,3.238281,-7.580042,-0.8714894,1.278504,-0.1054612,-1.016262,1.574461,905,-609,492
2495.918,3.242188,-7.244854,-1.364695,0.06224924,0.1320928,-1.00774,1.698032,889,-588,462
2495.922,3.246094,-7.240066,-1.92015,-0.9481039,0.2386192,-0.9853696,1.791775,909,-587,498
2495.926,3.25,-7.393295,-2.633622,-2.044648,0.2705772,-0.9938917,1.880192,907,-648,497
2495.93,3.253906,-7.594408,-3.356671,-2.906561,0.2151834,-1.008805,1.970739,894,-614,480
2495.934,3.257812,-7.891289,-4.256891,-2.992752,0.06072007,-1.029045,2.081527,866,-595,496
2495.938,3.261719,-8.135497,-4.711789,-2.446874,-0.02663161,-1.057808,2.156095,910,-636,504
2495.941,3.265625,-8.446743,-4.965574,-1.781286,-0.03728426,-1.062069,2.223207,885,-608,492
2495.945,3.269531,-8.825027,-4.994305,-1.039084,0.05752428,-1.055677,2.27434,896,-647,528
2495.949,3.273438,-9.303868,-4.865018,-0.1053449,0.3153183,-1.076982,2.311624,909,-626,470
2495.953,3.277344,-9.710882,-4.568137,0.3734955,0.5667207,-1.062069,2.31482,917,-614,516
2495.957,3.28125,-10.18972,-4.223372,0.5602432,0.8245147,-1.031176,2.299906,876,-635,518
2495.961,3.285156,-10.67335,-3.639187,0.6081272,1.052481,-1.016262,2.273274,931,-639,468
2495.965,3.289062,-11.2719,-2.882619,0.3399766,1.251686,-0.9736517,2.232794,881,-619,495
2495.969,3.292969,-11.74595,-2.231396,0.1340753,1.316667,-0.9182579,2.198706,874,-599,506
2495.973,3.296875,-12.32056,-1.527501,-0.06703765,1.319863,-0.8735168,2.167813,913,-609,520
2495.977,3.300781,-12.83292,-0.8283938,-0.08140286,1.280448,-0.8330368,2.141182,896,-641,477
2495.98,3.304688,-13.40753,0.09097966,-0.2154781,1.192031,-0.7882957,2.102832,844,-601,474
2495.984,3.308594,-13.83849,0.5602432,-0.1340753,1.113201,-0.7542072,2.073005,888,-611,505
2495.988,3.3125,-14.13537,1.01993,-0.01436521,1.035437,-0.7115966,2.038916,873,-628,496
2495.992,3.316406,-14.48013,1.355118,0.1484405,0.9555422,-0.6743124,2.002697,873,-599,498
2495.996,3.320312,-14.74349,1.604115,0.4788403,0.8575379,-0.6732471,1.955826,862,-595,497
2496,3.324219,-14.76744,1.661576,0.6655881,0.7765778,-0.648746,1.931324,872,-613,502
2496.004,3.328125,-14.72913,1.642422,0.7565677,0.6924219,-0.6167881,1.919607,883,-622,485
2496.008,3.332031,-14.56153,1.58975,0.7278373,0.6050702,-0.6189186,1.920672,871,-598,506
2496.012,3.335938,-14.27423,1.422156,0.6320692,0.4878911,-0.628506,1.943042,850,-623,500
2496.016,3.339844,-14.07312,1.278504,0.545878,0.3984089,-0.6231797,1.971804,918,-640,517
2496.02,3.34375,-13.85764,1.115698,0.3974375,0.3206446,-0.6189186,2.005893,920,-599,479
2496.023,3.347656,-13.70441,1.082179,0.1580173,0.2535329,-0.5997439,2.051699,913,-626,474
2496.027,3.351562,-13.49372,0.9959879,-0.04309563,0.1949434,-0.5613944,2.11455,852,-601,515
2496.031,3.355469,-13.39316,0.9816227,-0.1963245,0.1778992,-0.5379585,2.160356,845,-620,482
2496.035,3.359375,-13.23515,0.9768343,-0.2873042,0.1757686,-0.5049353,2.199771,880,-632,488
2496.039,3.363281,-13.18726,0.9528923,-0.320823,0.1821602,-0.4687164,2.232794,842,-582,484
2496.043,3.367188,-13.06755,0.9050082,-0.3830723,0.185356,-0.4399542,2.2541,852,-655,472
2496.047,3.371094,-12.91911,0.8379706,-0.4309563,0.1778992,-0.4058658,2.259426,869,-643,510
2496.051,3.375,-12.88559,0.842759,-0.4309563,0.1416802,-0.3557983,2.257295,831,-625,493
2496.055,3.378906,-12.6749,0.7565677,-0.4596867,0.08415589,-0.3259709,2.248773,877,-594,473
2496.059,3.382812,-12.44506,0.8140286,-0.4022259,-0.01384844,-0.3078614,2.218946,875,-657,465
2496.062,3.386719,-12.29662,0.8331822,-0.3399766,-0.1150486,-0.273773,2.197641,886,-634,537
2496.066,3.390625,-12.06678,0.914585,-0.3256114,-0.2247708,-0.2567287,2.174205,830,-627,497
2496.07,3.394531,-11.77947,0.9864111,-0.2920926,-0.3376888,-0.2620551,2.149704,836,-625,468
2496.074,3.398438,-11.56399,1.106121,-0.1819593,-0.4964132,-0.2386192,2.124137,873,-639,473
2496.078,3.402344,-11.37725,1.134852,-0.1388637,-0.6135923,-0.221575,2.107093,843,-615,485
2496.082,3.40625,-11.26711,1.23062,0.02394202,-0.7254451,-0.2183792,2.090049,858,-634,510
2496.086,3.410156,-11.09473,1.264138,0.1149217,-0.8287757,-0.2130529,2.082592,850,-635,465
2496.09,3.414062,-10.97023,1.302446,0.2106897,-0.9555422,-0.2205097,2.067678,868,-597,481
2496.094,3.417969,-10.91756,1.307234,0.1771709,-1.039698,-0.2151834,2.061287,844,-644,493
2496.098,3.421875,-10.87925,1.278504,0.1005565,-1.119593,-0.201335,2.05596,882,-644,465
2496.102,3.425781,-10.80264,1.225831,0.08619126,-1.212271,-0.205596,2.041047,901,-643,489
2496.105,3.429688,-10.72124,1.086968,0.01436521,-1.26873,-0.2024002,2.032525,837,-606,500
2496.109,3.433594,-10.72602,1.000776,-0.03351882,-1.318797,-0.1725728,2.018676,854,-617,459
2496.113,3.4375,-10.70687,0.8523358,-0.03830723,-1.357147,-0.1683118,1.997371,828,-657,502
2496.117,3.441406,-10.67814,0.6320692,-0.1005565,-1.397627,-0.1757686,1.960087,847,-598,508
2496.121,3.445312,-10.59195,0.5267244,-0.1675941,-1.425324,-0.165116,1.925998,881,-629,473
2496.125,3.449219,-10.50576,0.320823,-0.1628057,-1.449825,-0.1555286,1.89191,836,-609,522
2496.129,3.453125,-10.40041,0.1963245,-0.1675941,-1.466869,-0.1597897,1.847169,889,-618,507
2496.133,3.457031,-10.24718,0.07182605,-0.1628057,-1.488174,-0.1821602,1.789644,833,-600,459
2496.137,3.460938,-10.00776,-0.01436521,-0.1388637,-1.507349,-0.1768339,1.747034,879,-612,474
2496.141,3.464844,-9.77792,-0.1197101,-0.2059013,-1.519067,-0.1757686,1.710815,834,-641,454
2496.145,3.46875,-9.528923,-0.2585738,-0.3160346,-1.518002,-0.2024002,1.667139,854,-628,490
2496.148,3.472656,-9.198523,-0.3303998,-0.4405331,-1.50948,-0.1981392,1.618137,855,-623,498
2496.152,3.476562,-8.911219,-0.5267244,-0.5554548,-1.497762,-0.1821602,1.580852,837,-629,503
2496.156,3.480469,-8.609549,-0.6129156,-0.6943185,-1.490305,-0.1885518,1.541438,819,-637,508
2496.16,3.484375,-8.398859,-0.7852981,-0.6895301,-1.486044,-0.1960087,1.504153,850,-615,446
2496.164,3.488281,-8.049306,-0.9624691,-0.7565677,-1.483913,-0.1864213,1.451955,859,-590,489
2496.168,3.492188,-7.848193,-1.154005,-0.7900865,-1.487109,-0.1778992,1.41041,840,-627,491
2496.172,3.496094,-7.637503,-1.321599,-0.8044518,-1.482848,-0.1821602,1.368865,809,-655,472
2496.176,3.5,-7.513005,-1.441309,-0.7517793,-1.486044,-0.1864213,1.321993,834,-626,504
2496.18,3.503906,-7.311892,-1.719037,-0.6081272,-1.494566,-0.1821602,1.255947,850,-644,496
2496.184,3.507812,-7.192182,-1.891419,-0.4165911,-1.493501,-0.181095,1.203749,828,-618,497
2496.188,3.511719,-7.086837,-2.073379,-0.3351882,-1.488174,-0.1970739,1.138768,851,-635,501
2496.191,3.515625,-6.95755,-2.231396,-0.2202666,-1.480718,-0.2098571,1.075917,850,-635,509
2496.195,3.519531,-6.852205,-2.39899,-0.1053449,-1.454086,-0.2087918,0.9875001,831,-631,491
2496.199,3.523438,-6.842628,-2.451662,-0.1053449,-1.429585,-0.1992044,0.9203885,836,-632,507
2496.203,3.527344,-6.799533,-2.528277,-0.03830723,-1.396562,-0.1885518,0.8543421,833,-655,467
2496.207,3.53125,-6.890512,-2.633622,0.03351882,-1.361408,-0.185356,0.7872304,823,-655,480
2496.211,3.535156,-6.914454,-2.748544,0.1580173,-1.313471,-0.1747034,0.6977482,846,-643,495
2496.215,3.539062,-6.914454,-2.868254,0.296881,-1.27086,-0.1672465,0.6317018,841,-613,508
2496.219,3.542969,-7.019799,-2.901772,0.4309563,-1.222924,-0.1629855,0.5635249,839,-613,490
2496.223,3.546875,-7.015011,-2.920926,0.5315128,-1.165399,-0.1683118,0.4921522,817,-641,489
2496.227,3.550781,-6.981492,-2.863465,0.56982,-1.083374,-0.1821602,0.3994742,853,-629,497
2496.23,3.554688,-6.943185,-2.825158,0.5267244,-1.017328,-0.1938781,0.3270362,839,-565,490
2496.234,3.558594,-6.909666,-2.719813,0.6081272,-0.9459548,-0.1992044,0.2599245,862,-631,497
2496.238,3.5625,-6.861782,-2.633622,0.5889736,-0.8681905,-0.205596,0.1960087,877,-626,509
2496.242,3.566406,-6.703765,-2.667141,0.5985504,-0.7520767,-0.2087918,0.112918,868,-653,500
2496.246,3.570312,-6.59842,-2.600103,0.6272808,-0.644485,-0.205596,0.05645902,831,-627,520
2496.25,3.574219,-6.47871,-2.504335,0.6751649,-0.519849,-0.2002697,0.002130529,828,-619,498
2496.254,3.578125,-6.38773,-2.418144,0.6751649,-0.386691,-0.1725728,-0.05752428,828,-599,495
2496.258,3.582031,-6.435614,-2.15957,0.7852981,-0.1917476,-0.1203749,-0.1480718,822,-618,462
2496.262,3.585938,-6.430826,-1.968034,0.9576807,-0.03621899,-0.07669904,-0.2119876,829,-574,474
2496.266,3.589844,-6.464344,-1.723825,1.115698,0.1150486,-0.04580637,-0.2759035,820,-631,488
2496.27,3.59375,-6.50744,-1.503559,1.264138,0.2588593,-0.03195793,-0.3440804,863,-636,472
2496.273,3.597656,-6.564901,-1.192312,1.47004,0.4293016,-0.0298274,-0.4346279,830,-647,499
2496.277,3.601562,-6.540959,-0.9337386,1.584961,0.5209143,-0.02769688,-0.5028048,812,-608,479
2496.281,3.605469,-6.584055,-0.7422025,1.699883,0.5816344,-0.01917476,-0.5677859,874,-591,478
2496.285,3.609375,-6.622362,-0.4261679,1.8579,0.6029397,0.001065264,-0.6370281,873,-606,503
2496.289,3.613281,-6.799533,-0.08140286,2.106897,0.5901565,0.04261058,-0.7329019,841,-646,503
2496.293,3.617188,-6.890512,0.2059013,2.494758,0.5624596,0.06817692,-0.8021441,856,-632,465
2496.297,3.621094,-6.991069,0.593762,3.050213,0.5113269,0.07669904,-0.8745821,814,-640,509
2496.301,3.625,-7.192182,0.9289502,3.677494,0.4399542,0.05752428,-0.938498,816,-613,459
2496.305,3.628906,-7.297527,1.493982,4.458003,0.3131877,-0.03515373,-1.006675,866,-605,470
2496.309,3.632812,-7.345411,1.972822,4.754884,0.1949434,-0.1310275,-1.040763,841,-613,508
2496.312,3.636719,-7.283161,2.480393,4.898537,0.06817692,-0.2322276,-1.067395,847,-650,496
2496.316,3.640625,-7.278373,3.131616,4.903325,-0.05752428,-0.3227751,-1.085504,834,-627,514
2496.32,3.644531,-7.259219,3.983952,4.721366,-0.1885518,-0.4239752,-1.107875,891,-581,497
2496.324,3.648438,-7.139509,4.778827,4.386177,-0.2641856,-0.4601942,-1.124919,860,-603,478
2496.328,3.652344,-7.144298,5.516241,4.070143,-0.3089267,-0.4708469,-1.138768,872,-616,483
2496.332,3.65625,-7.153875,6.244078,3.754108,-0.3238404,-0.4484763,-1.14729,865,-601,478
2496.336,3.660156,-7.211335,7.163451,3.433285,-0.2961435,-0.3802994,-1.155812,824,-610,461
2496.34,3.664062,-7.369353,7.805097,3.213019,-0.2482066,-0.3078614,-1.154747,845,-616,476
2496.344,3.667969,-7.517793,8.355764,2.892196,-0.1800297,-0.2300971,-1.144094,825,-599,508
2496.348,3.671875,-7.733271,8.916007,2.312799,-0.08522115,-0.1470065,-1.12918,846,-613,483
2496.352,3.675781,-8.063671,9.528923,1.541866,0.08522115,-0.01171791,-1.084439,851,-637,456
2496.355,3.679688,-8.446743,10.10832,1.096544,0.2386192,0.08628642,-1.042894,806,-606,465
2496.359,3.683594,-8.796297,10.59195,0.4932055,0.4101268,0.1768339,-0.9864349,864,-627,492
2496.363,3.6875,-9.069236,10.9846,-0.02873042,0.5763081,0.2631203,-0.922519,847,-593,511
2496.367,3.691406,-9.452308,11.53526,-0.7230489,0.777643,0.3920173,-0.8245147,845,-605,478
2496.371,3.695312,-9.667786,11.79863,-1.101333,0.90654,0.5081311,-0.7382283,854,-619,523
2496.375,3.699219,-9.801862,12.03326,-1.383849,1.013066,0.6295713,-0.6359629,857,-609,501
2496.379,3.703125,-10.0317,12.11945,-1.474828,1.095092,0.741424,-0.5251754,854,-652,482
2496.383,3.707031,-10.18015,12.16733,-1.340753,1.152616,0.8511463,-0.3728426,837,-601,500
2496.387,3.710938,-10.35253,12.01889,-1.101333,1.156877,0.9097358,-0.2631203,845,-614,479
2496.391,3.714844,-10.43393,11.77947,-0.7900865,1.143029,0.9438243,-0.1619202,833,-602,513
2496.395,3.71875,-10.53928,11.49217,-0.3782839,1.119593,0.9395632,-0.07989483,853,-617,473
2496.398,3.722656,-10.43872,11.20965,-0.02873042,1.100418,0.9001484,0,856,-639,494
2496.402,3.726562,-10.31901,10.97981,0.2681506,1.101483,0.8692558,0.03834952,831,-592,498
2496.406,3.730469,-10.08438,10.74997,0.5554548,1.115332,0.8436894,0.05539375,895,-612,504
2496.41,3.734375,-9.739612,10.57279,0.6943185,1.150486,0.8159926,0.0628506,870,-632,498
2496.414,3.738281,-9.112332,10.39562,0.3064578,1.221858,0.8159926,0.07137272,867,-607,499
2496.418,3.742188,-8.590396,10.27591,-0.1580173,1.28897,0.8937569,0.08522115,860,-582,508
2496.422,3.746094,-8.09719,10.00776,-0.7230489,1.361408,1.037568,0.1033307,888,-657,513
2496.426,3.75,-7.742848,9.682152,-1.383849,1.417867,1.186705,0.1193096,842,-607,480
2496.43,3.753906,-7.752425,8.968679,-2.260126,1.439172,1.318797,0.1214401,862,-597,480
2496.434,3.757812,-8.030152,8.322245,-2.964022,1.381648,1.365669,0.0958738,868,-611,453
2496.438,3.761719,-8.90643,7.302315,-3.797204,1.214401,1.362473,0.0479369,841,-595,492
2496.441,3.765625,-10.74518,5.535394,-4.601656,0.9118664,1.30921,-0.01917476,870,-581,519
2496.445,3.769531,-12.85207,2.15957,-4.266467,0.2908172,1.298557,-0.1171791,838,-597,495
2496.449,3.773438,-15.39472,-0.7709329,-2.60968,-0.3824299,1.473261,-0.181095,850,-616,499
2496.453,3.777344,-17.89905,-3.500323,0.1628057,-1.2911,1.787514,-0.2524677,857,-622,521
2496.457,3.78125,-20.36987,-5.48751,5.185841,-2.319081,2.083657,-0.3696468,865,-645,504
2496.461,3.785156,-20.88702,-5.822698,9.308656,-3.318299,2.070874,-0.7105314,869,-604,501
2496.465,3.789062,-20.13045,-3.830723,12.49294,-3.419499,1.499892,-1.121723,853,-629,474
2496.469,3.792969,-19.18234,-0.6224924,13.3357,-3.042395,0.5826996,-1.500958,846,-633,469
2496.473,3.796875,-18.18636,2.202666,11.96143,-2.43626,-0.5326322,-1.698032,870,-604,469
2496.477,3.800781,-17.05629,4.204218,10.6925,-2.229598,-0.9086706,-1.623463,854,-660,478
2496.48,3.804688,-14.82011,5.181052,9.078813,-2.201902,-0.850081,-1.451955,836,-623,489
2496.484,3.808594,-12.23437,6.435614,6.564901,-2.197641,-0.5251754,-1.229315,862,-613,536
2496.488,3.8125,-9.270349,8.073248,1.94888,-2.098571,0.03195793,-0.8255799,871,-602,515
2496.492,3.816406,-7.76679,8.671798,-1.565808,-1.956891,0.386691,-0.4495416,846,-629,498
2496.496,3.820312,-7.053318,8.140286,-4.357447,-1.768339,0.6103965,-0.06924219,866,-629,519
2496.5,3.824219,-7.149086,6.564901,-6.349423,-1.53185,0.7147924,0.2620551,844,-590,483
2496.504,3.828125,-7.972692,3.533842,-7.560889,-1.180313,0.7456851,0.5581986,849,-599,518
2496.508,3.832031,-8.590396,0.5985504,-6.995857,-0.9416938,0.7744472,0.6785734,874,-619,495
2496.512,3.835938,-8.992621,-2.274492,-5.401319,-0.7563377,0.8330368,0.7318367,845,-616,486
2496.516,3.839844,-9.217676,-4.960786,-3.438074,-0.6498113,0.8894958,0.7392935,850,-615,489
2496.52,3.84375,-9.318233,-8.025364,-1.556231,-0.6412892,0.8532768,0.6988135,844,-634,496
2496.523,3.847656,-9.102755,-9.921572,-1.082179,-0.644485,0.7382283,0.6093313,857,-627,468
2496.527,3.851562,-8.820239,-11.18571,-1.158794,-0.5709817,0.6157228,0.4559332,864,-606,508
2496.531,3.855469,-8.446743,-12.00453,-1.388637,-0.4111921,0.5592638,0.2503371,834,-629,480
2496.535,3.859375,-7.896077,-12.60308,-1.182736,-0.07350325,0.5603291,-0.07669904,869,-619,501
2496.539,3.863281,-7.541735,-12.55519,-1.120486,0.2567287,0.5656554,-0.3440804,858,-667,473
2496.543,3.867188,-7.268796,-11.89439,-1.594538,0.6295713,0.5507417,-0.6231797,868,-609,539
2496.547,3.871094,-7.144298,-10.80743,-2.561796,1.037568,0.5347627,-0.9076053,885,-621,489
2496.551,3.875,-7.331045,-8.978256,-3.572149,1.563808,0.5635249,-1.271926,872,-606,468
2496.555,3.878906,-7.613561,-7.594408,-3.830723,1.872735,0.6050702,-1.510545,899,-646,497
2496.559,3.882812,-7.896077,-6.378153,-3.730166,2.075135,0.6210492,-1.71188,885,-642,484
2496.562,3.886719,-8.130709,-5.190629,-3.462016,2.148638,0.592287,-1.885518,884,-640,512
2496.566,3.890625,-8.192958,-3.476381,-3.543418,2.07407,0.5347627,-2.049569,864,-646,496
2496.57,3.894531,-8.106767,-1.94888,-3.912126,1.946238,0.5091964,-2.11668,841,-625,512
2496.574,3.898438,-7.943961,-0.2202666,-4.276044,1.804558,0.5070659,-2.125203,851,-625,476
2496.578,3.902344,-8.073248,1.25935,-4.548983,1.656486,0.5443501,-2.079396,850,-639,485
2496.582,3.90625,-8.346187,3.29921,-4.64954,1.45089,0.6253102,-1.957956,863,-632,486
2496.586,3.910156,-8.815451,4.395754,-4.333505,1.278317,0.6828345,-1.841842,877,-658,485
2496.59,3.914062,-9.423578,5.377377,-3.950433,1.089766,0.7275756,-1.712945,855,-625,547
2496.594,3.917969,-10.17536,6.038177,-2.983175,0.8852347,0.7627293,-1.575526,842,-581,516
2496.598,3.921875,-11.08515,6.536171,-1.651999,0.5965481,0.773382,-1.386974,888,-597,496
2496.602,3.925781,-11.73159,6.751649,-0.56982,0.3749731,0.7435546,-1.246359,887,-577,483
2496.605,3.929688,-12.35408,6.780379,0.3112462,0.1480718,0.684965,-1.111071,897,-620,524
2496.609,3.933594,-12.65096,6.655881,0.9481039,-0.0809601,0.5997439,-0.9906959,860,-610,499
2496.613,3.9375,-12.60308,6.301539,1.221043,-0.3632552,0.4697816,-0.8628642,910,-605,486
2496.617,3.941406,-12.14818,5.90889,1.077391,-0.5507417,0.3834952,-0.7904262,859,-648,489
2496.621,3.945312,-11.56878,5.386954,0.7422025,-0.7179882,0.3227751,-0.7307714,868,-613,490
2496.625,3.949219,-10.76433,4.687847,0.4357447,-0.8692558,0.2929477,-0.6828345,924,-577,516
2496.629,3.953125,-9.797073,3.744531,0.2154781,-1.047155,0.3014698,-0.624245,893,-601,515
2496.633,3.957031,-9.155427,2.987964,0.1532289,-1.154747,0.3249057,-0.5901565,868,-599,508
2496.637,3.960938,-8.681375,2.346318,0.1340753,-1.236772,0.3419499,-0.5581986,898,-607,494
2496.641,3.964844,-8.317457,1.642422,0.06703765,-1.284709,0.3515373,-0.5400891,878,-647,552
2496.645,3.96875,-8.049306,0.7661445,-0.2298434,-1.293231,0.3653857,-0.535828,898,-600,501
2496.648,3.972656,-7.805097,0.1580173,-0.4596867,-1.259143,0.3760383,-0.5464807,871,-623,508
2496.652,3.976562,-7.709329,-0.5027823,-0.794875,-1.195227,0.390952,-0.5688512,882,-628,489
2496.656,3.980469,-7.690176,-1.23062,-1.043872,-1.102549,0.4079963,-0.5986786,868,-620,506
2496.66,3.984375,-7.809886,-2.073379,-1.216254,-0.9491506,0.4197142,-0.6508766,877,-616,505
2496.664,3.988281,-7.929596,-2.715025,-1.388637,-0.8117315,0.4303668,-0.6924219,863,-635,514
2496.668,3.992188,-8.173804,-3.241749,-1.388637,-0.664725,0.4463458,-0.741424,860,-600,521
2496.672,3.996094,-8.42759,-3.706224,-1.398214,-0.5049353,0.4601942,-0.7882957,884,-586,505
2496.676,4,-8.719682,-4.189853,-1.455675,-0.2652508,0.4655206,-0.8522115,868,-638,530
2496.68,4.003906,-8.916007,-4.304775,-1.570596,-0.07030745,0.4697816,-0.8980179,886,-622,523
2496.684,4.007812,-9.11712,-4.328717,-1.68073,0.1374191,0.4644553,-0.9353022,887,-582,534
2496.688,4.011719,-9.275137,-4.242525,-1.742979,0.350472,0.4548679,-0.9693906,883,-611,518
2496.691,4.015625,-9.509769,-3.811569,-1.776498,0.6338323,0.4420847,-0.9981528,894,-622,505
2496.695,4.019531,-9.572018,-3.41892,-1.80044,0.8287757,0.4452805,-1.009871,834,-626,532
2496.699,4.023438,-9.653421,-3.011906,-1.719037,1.006675,0.4484763,-1.016262,873,-620,502
2496.703,4.027344,-9.71567,-2.580949,-1.608904,1.159008,0.4452805,-1.015197,892,-650,501
2496.707,4.03125,-9.782708,-1.929727,-1.522712,1.313471,0.4335626,-1.009871,880,-622,503
2496.711,4.035156,-9.854534,-1.513135,-1.532289,1.392301,0.4005394,-1.008805,889,-626,502
2496.715,4.039062,-9.92636,-1.039084,-1.47004,1.445564,0.3834952,-1.002414,866,-611,519
2496.719,4.042969,-9.983821,-0.5889736,-1.359907,1.478587,0.3568636,-0.9981528,852,-588,488
2496.723,4.046875,-10.02692,-0.1484405,-1.154005,1.487109,0.3195793,-0.9875001,884,-615,515
2496.727,4.050781,-9.955091,0.2059013,-0.890643,1.478587,0.2886867,-0.9768475,876,-595,534
2496.73,4.054688,-10.0317,0.5793968,-0.7326257,1.459412,0.2567287,-0.9683254,880,-634,535
2496.734,4.058594,-9.998186,0.8810662,-0.6703765,1.42852,0.2258361,-0.9555422,893,-596,507
2496.738,4.0625,-9.931148,1.235408,-0.5985504,1.39017,0.1885518,-0.9470201,878,-572,488
2496.742,4.066406,-9.888053,1.503559,-0.5985504,1.355016,0.1736381,-0.9395632,890,-613,506
2496.746,4.070312,-9.763554,1.714248,-0.5602432,1.315602,0.1715076,-0.9299759,903,-582,528
2496.75,4.074219,-9.701305,1.82917,-0.5506664,1.271926,0.1715076,-0.9246495,886,-560,550
2496.754,4.078125,-9.634267,1.977611,-0.5841852,1.201618,0.1715076,-0.9235843,897,-619,489
2496.758,4.082031,-9.485827,1.92015,-0.5410896,1.139833,0.1757686,-0.9235843,862,-594,515
2496.762,4.085938,-9.418789,1.896208,-0.5650316,1.065264,0.1757686,-0.9246495,886,-598,540
2496.766,4.089844,-9.303868,1.877054,-0.521936,0.9938917,0.181095,-0.9267801,889,-576,496
2496.77,4.09375,-9.193734,1.632846,-0.4788403,0.8969527,0.1832255,-0.9342369,886,-625,521
2496.773,4.097656,-9.150639,1.474828,-0.4788403,0.8234494,0.1821602,-0.938498,887,-612,493
2496.777,4.101562,-9.136274,1.302446,-0.5506664,0.7542072,0.185356,-0.9438243,882,-597,499
2496.781,4.105469,-9.083601,1.144428,-0.6368576,0.6902914,0.1874865,-0.9459548,914,-622,530
2496.785,4.109375,-9.102755,0.9864111,-0.6751649,0.6103965,0.1992044,-0.9502159,886,-619,504
2496.789,4.113281,-9.131485,0.9337386,-0.7517793,0.5496764,0.2141182,-0.9534117,894,-592,476
2496.793,4.117188,-9.131485,0.8283938,-0.8236054,0.4900216,0.2290319,-0.9608685,858,-596,497
2496.797,4.121094,-9.179369,0.8044518,-0.8571242,0.4335626,0.2386192,-0.9672601,864,-583,477
2496.801,4.125,-9.279926,0.7900865,-0.8379706,0.350472,0.2503371,-0.978978,923,-587,476
2496.805,4.128906,-9.284714,0.8044518,-0.8762778,0.2897519,0.257794,-0.9864349,900,-603,490
2496.809,4.132812,-9.332598,0.818817,-0.9002198,0.2269013,0.2695119,-0.9896307,893,-631,511
2496.812,4.136719,-9.414001,0.8236054,-0.8523358,0.1661813,0.2865561,-0.994957,878,-584,512
2496.816,4.140625,-9.433155,0.866701,-0.7805097,0.08841695,0.3174488,-0.9970875,905,-595,500
2496.82,4.144531,-9.433155,0.7613561,-0.7374141,0.03621899,0.334493,-0.9981528,914,-576,501
2496.824,4.148438,-9.466673,0.8092402,-0.5841852,-0.004261058,0.350472,-1.000283,881,-601,534
2496.828,4.152344,-9.437943,0.7613561,-0.5123592,-0.03834952,0.3621899,-0.9970875,915,-622,519
2496.832,4.15625,-9.514557,0.6751649,-0.4261679,-0.06817692,0.3781689,-1.001349,883,-613,549
2496.836,4.160156,-9.471462,0.6464344,-0.2777274,-0.07989483,0.3845605,-1.003479,886,-584,531
2496.84,4.164062,-9.495404,0.5793968,-0.2202666,-0.0777643,0.3856257,-1.008805,896,-625,518
2496.844,4.167969,-9.390059,0.4788403,-0.1628057,-0.06711166,0.3813647,-1.014132,886,-588,520
2496.848,4.171875,-9.332598,0.3687071,-0.2011129,-0.05113269,0.386691,-1.016262,884,-579,533
2496.852,4.175781,-9.260772,0.3639187,-0.1101333,-0.03195793,0.3973436,-1.016262,872,-598,545
2496.855,4.179688,-9.212888,0.2537854,-0.03351882,-0.00958738,0.4122573,-1.010936,885,-628,504
2496.859,4.183594,-9.23683,0.1101333,0.1005565,0.02450108,0.4261058,-1.000283,891,-623,511
2496.863,4.1875,-9.23683,0.06703765,0.1867477,0.0479369,0.4324974,-0.9906959,878,-579,516
2496.867,4.191406,-9.275137,-0.07182605,0.2346318,0.07563377,0.4261058,-0.9821738,899,-567,504
2496.871,4.195312,-9.361328,-0.1053449,0.225055,0.1065264,0.4165184,-0.9683254,901,-565,508
2496.875,4.199219,-9.437943,-0.1867477,0.2346318,0.1544633,0.4143879,-0.9491506,887,-623,527
2496.879,4.203125,-9.586383,-0.1628057,0.1101333,0.1917476,0.4090615,-0.9289106,883,-629,535
2496.883,4.207031,-9.653421,-0.2011129,0.1197101,0.2332929,0.4143879,-0.9054748,879,-605,489
2496.887,4.210938,-9.677363,-0.1915361,-0.009576807,0.2769688,0.427171,-0.8863,878,-611,512
2496.891,4.214844,-9.974244,-0.1101333,-0.2346318,0.3366236,0.4495416,-0.8564726,908,-619,496
2496.895,4.21875,-10.1179,-0.03351882,-0.2537854,0.390952,0.4665858,-0.8319715,892,-612,533
2496.898,4.222656,-10.25197,0.07661445,-0.3064578,0.4516721,0.4761732,-0.8181231,892,-595,503
2496.902,4.226562,-10.37647,0.1915361,-0.3112462,0.5177185,0.4783037,-0.8085357,894,-604,515
2496.906,4.230469,-10.48181,0.3734955,-0.4165911,0.6061355,0.4751079,-0.8053399,877,-596,501
2496.91,4.234375,-10.52491,0.593762,-0.521936,0.6838998,0.4719121,-0.8074704,876,-534,518
2496.914,4.238281,-10.55364,0.7805097,-0.7182605,0.7680557,0.4740427,-0.813862,916,-625,515
2496.918,4.242188,-10.47224,1.082179,-0.818817,0.8564726,0.4761732,-0.8223841,870,-612,506
2496.922,4.246094,-10.3621,1.450886,-0.9433155,0.9757822,0.4697816,-0.8415589,867,-607,519
2496.926,4.25,-10.23282,1.877054,-1.072602,1.051416,0.4569984,-0.8564726,887,-617,486
2496.93,4.253906,-10.09874,2.212242,-1.13964,1.112136,0.4314321,-0.8681905,877,-565,500
2496.934,4.257812,-10.00776,2.509123,-1.206678,1.146225,0.4079963,-0.8735168,928,-578,539
2496.938,4.261719,-9.844957,3.016694,-1.173159,1.160073,0.3845605,-0.8724516,898,-616,544
2496.941,4.265625,-9.725247,3.318364,-1.077391,1.148355,0.3600594,-0.86606,920,-612,545
2496.945,4.269531,-9.634267,3.548207,-1.134852,1.120658,0.3398194,-0.84582,896,-581,514
2496.949,4.273438,-9.495404,3.931279,-1.144428,1.08657,0.3057309,-0.8213189,924,-573,495
2496.953,4.277344,-9.418789,4.19943,-1.278504,1.020523,0.2663161,-0.7701862,932,-623,544
2496.957,4.28125,-9.399636,4.453215,-1.331176,0.9619338,0.2439456,-0.7254451,901,-605,501
2496.961,4.285156,-9.337386,4.611232,-1.426944,0.8905611,0.2386192,-0.6753777,920,-581,516
2496.965,4.289062,-9.361328,4.79798,-1.465251,0.809601,0.2343582,-0.6231797,870,-580,535
2496.969,4.292969,-9.433155,5.032612,-1.661576,0.6988135,0.2332929,-0.5613944,927,-600,519
2496.973,4.296875,-9.56723,5.209783,-1.752556,0.608266,0.2258361,-0.5251754,914,-579,522
2496.977,4.300781,-9.610325,5.372589,-1.891419,0.5145227,0.2077266,-0.4942827,877,-601,495
2496.98,4.304688,-9.758766,5.358223,-1.958457,0.4122573,0.1896171,-0.4687164,928,-590,522
2496.984,4.308594,-9.849746,5.406107,-2.025495,0.2705772,0.1768339,-0.4452805,920,-585,511
2496.988,4.3125,-9.840169,5.358223,-2.092532,0.1672465,0.1747034,-0.4293016,876,-585,513
2496.992,4.316406,-9.902418,5.233725,-2.15957,0.07456851,0.1704423,-0.4122573,927,-585,510
2496.996,4.320312,-9.911995,5.051766,-2.078167,0,0.1565939,-0.3984089,870,-576,522
2497,4.324219,-9.940725,4.716577,-2.025495,-0.0777643,0.1257012,-0.3792341,873,-593,503
2497.004,4.328125,-9.955091,4.481946,-1.953669,-0.1246359,0.1118528,-0.3568636,912,-561,512
2497.008,4.332031,-10.00776,4.185065,-1.82917,-0.1565939,0.1001349,-0.334493,903,-613,473
2497.012,4.335938,-10.13705,3.883395,-1.714248,-0.1757686,0.08202536,-0.3078614,917,-599,470
2497.016,4.339844,-10.24718,3.533842,-1.551443,-0.1757686,0.04048005,-0.2684466,942,-580,512
2497.02,4.34375,-10.29028,3.361459,-1.513135,-0.149137,0.01384844,-0.2407498,931,-627,519
2497.023,4.347656,-10.3621,3.217807,-1.426944,-0.1022654,-0.004261058,-0.2130529,864,-624,500
2497.027,4.351562,-10.37168,3.145981,-1.455675,-0.04474111,-0.03195793,-0.1864213,890,-588,509
2497.031,4.355469,-10.42435,3.275268,-1.460463,0.02130529,-0.04367584,-0.1523328,910,-566,550
2497.035,4.359375,-10.58237,3.394978,-1.355118,0.05645902,-0.0330232,-0.1246359,887,-586,494
2497.039,4.363281,-10.87925,3.600879,-1.144428,0.07563377,-0.02663161,-0.08415589,917,-586,519
2497.043,4.367188,-11.42513,3.849876,-0.9528923,0.08735168,-0.04687164,-0.0330232,874,-608,495
2497.047,4.371094,-12.469,4.304775,-0.6607997,0.09374327,-0.1033307,0.06072007,912,-583,539
2497.051,4.375,-13.43147,4.616021,-0.2154781,0.1107875,-0.1672465,0.1459412,921,-611,509
2497.055,4.378906,-14.31733,4.946421,0.3016694,0.1331581,-0.2631203,0.2386192,923,-601,499
2497.059,4.382812,-15.20318,5.257667,0.8810662,0.1555286,-0.3749731,0.3430151,919,-614,566
2497.062,4.386719,-16.07467,5.372589,1.479617,0.149137,-0.5187838,0.4878911,931,-567,476
2497.066,4.390625,-16.29972,5.291186,1.656788,0.1118528,-0.6370281,0.588026,925,-572,517
2497.07,4.394531,-16.05073,4.874595,1.742979,0.03834952,-0.7616641,0.6711166,967,-588,527
2497.074,4.398438,-15.41866,4.309563,1.848324,-0.06072007,-0.8490158,0.737163,874,-606,501
2497.078,4.402344,-14.33169,3.361459,2.217031,-0.1821602,-0.9118664,0.8245147,907,-583,512
2497.082,4.40625,-13.5416,2.576161,2.710236,-0.2247708,-0.9470201,0.9012137,911,-566,549
2497.086,4.410156,-12.78983,1.853112,2.786851,-0.2002697,-0.9928265,0.9896307,922,-610,519
2497.09,4.414062,-12.06678,1.163582,2.547431,-0.1267665,-1.041829,1.08657,937,-559,509
2497.094,4.417969,-11.08515,0.4070143,2.130839,-0.01384844,-1.074852,1.237837,926,-595,526
2497.098,4.421875,-10.46266,-0.2585738,1.82917,0.06498113,-1.0887,1.370995,898,-617,519
2497.102,4.425781,-9.883264,-0.7374141,1.881843,0.1470065,-1.119593,1.506284,914,-563,485
2497.105,4.429688,-9.275137,-1.16837,1.412579,0.2258361,-1.153681,1.637311,900,-597,483
2497.109,4.433594,-8.647856,-1.80044,0.8379706,0.3227751,-1.159008,1.796036,886,-620,494
2497.113,4.4375,-8.350975,-2.154781,0.1436521,0.3728426,-1.153681,1.915345,893,-602,565
2497.117,4.441406,-8.063671,-2.624045,-0.3016694,0.4058658,-1.157942,2.028263,883,-590,524
2497.121,4.445312,-7.991845,-3.126827,-0.5075708,0.4133226,-1.144094,2.124137,888,-567,492
2497.125,4.449219,-7.963115,-3.624821,-0.3399766,0.4442153,-1.128115,2.232794,884,-616,504
2497.129,4.453125,-8.078036,-3.768473,-0.2011129,0.5230448,-1.132376,2.291384,904,-571,522
2497.133,4.457031,-8.250419,-3.916914,0.03351882,0.6508766,-1.124919,2.33506,876,-623,497
2497.137,4.460938,-8.513781,-4.01747,0.1867477,0.8234494,-1.116397,2.359561,914,-622,535
2497.141,4.464844,-8.887277,-4.050989,0.296881,1.10681,-1.136637,2.368083,887,-626,521
2497.145,4.46875,-9.169792,-3.983952,0.2059013,1.313471,-1.144094,2.361691,916,-615,513
2497.148,4.472656,-9.485827,-3.725378,0.07661445,1.488174,-1.123854,2.345712,917,-601,494
2497.152,4.476562,-9.873688,-3.308787,-0.04788403,1.623463,-1.100418,2.329733,857,-616,529
2497.156,4.480469,-10.41957,-2.552219,-0.248997,1.73212,-1.073787,2.305232,875,-613,529
2497.16,4.484375,-10.86489,-1.752556,-0.4692635,1.765143,-1.036502,2.283927,918,-626,489
2497.164,4.488281,-11.46344,-0.9193734,-0.6033388,1.748099,-0.9725864,2.270079,884,-586,465
2497.168,4.492188,-12.35887,-0.09097966,-0.5841852,1.695901,-0.9214537,2.255165,917,-596,500
2497.172,4.496094,-12.97178,0.8140286,-0.4644751,1.585113,-0.8692558,2.223207,889,-618,503
2497.176,4.5,-13.69483,1.422156,-0.2920926,1.474326,-0.813862,2.183792,869,-617,487
2497.18,4.503906,-14.33648,1.939303,-0.2059013,1.346494,-0.7659251,2.132659,906,-638,509
2497.184,4.507812,-15.1122,2.365471,0.05267244,1.20801,-0.7382283,2.075135,899,-602,484
2497.188,4.511719,-15.61977,2.743755,0.2394202,0.9906959,-0.6657903,2.000567,903,-600,477
2497.191,4.515625,-15.99327,2.992752,0.3926491,0.8181231,-0.6231797,1.951564,875,-614,495
2497.195,4.519531,-16.11777,3.05979,0.617704,0.6476808,-0.6008091,1.91215,881,-577,479
2497.199,4.523438,-16.28536,3.031059,0.8475474,0.4420847,-0.5795039,1.885518,887,-636,489
2497.203,4.527344,-16.12734,2.916138,0.8475474,0.3089267,-0.5795039,1.879126,859,-626,475
2497.207,4.53125,-15.88313,2.810793,0.8283938,0.2024002,-0.5965481,1.898301,905,-615,525
2497.211,4.535156,-15.50006,2.719813,0.6464344,0.1193096,-0.5976133,1.935585,872,-614,523
2497.215,4.539062,-14.89193,2.5187,0.296881,0.03089267,-0.5954828,2.012285,901,-597,510
2497.219,4.542969,-14.44182,2.403778,0.09097966,-0.01171791,-0.6040049,2.075135,901,-625,490
2497.223,4.546875,-14.05396,2.15957,-0.06224924,-0.04580637,-0.592287,2.144377,859,-629,516
2497.227,4.550781,-13.63737,2.035071,-0.2154781,-0.07563377,-0.5752428,2.211489,874,-579,474
2497.23,4.554688,-13.23994,1.671153,-0.2633622,-0.1193096,-0.5635249,2.282862,876,-625,485
2497.234,4.558594,-12.98615,1.388637,-0.3160346,-0.1608549,-0.5411543,2.324407,880,-608,489
2497.238,4.5625,-12.73715,1.11091,-0.2681506,-0.2247708,-0.5070659,2.3553,877,-651,500
2497.242,4.566406,-12.52167,0.8379706,-0.2825158,-0.3036004,-0.5049353,2.363822,914,-596,509
2497.246,4.570312,-12.21043,0.5363012,-0.225055,-0.4367584,-0.4900216,2.3553,880,-604,504
2497.25,4.574219,-12.07156,0.344765,-0.1532289,-0.5581986,-0.4772385,2.343582,899,-626,501
2497.254,4.578125,-11.80341,0.2298434,-0.08619126,-0.6838998,-0.4857606,2.326538,870,-619,491
2497.258,4.582031,-11.62624,0.09097966,-0.004788403,-0.809601,-0.4846953,2.302036,896,-562,504
2497.262,4.585938,-11.29584,0.05267244,-0.02394202,-0.9651296,-0.4814995,2.265817,905,-602,542
2497.266,4.589844,-11.07079,0.07182605,0.08140286,-1.061003,-0.4783037,2.241316,880,-601,467
2497.27,4.59375,-10.85531,0.1819593,0.1819593,-1.138768,-0.4697816,2.221076,844,-615,492
2497.273,4.597656,-10.7787,0.1628057,0.3543418,-1.201618,-0.4676511,2.201902,893,-611,485
2497.277,4.601562,-10.66377,0.2585738,0.4022259,-1.267665,-0.4495416,2.179531,869,-573,488
2497.281,4.605469,-10.58716,0.3878607,0.3639187,-1.293231,-0.4356932,2.163552,873,-636,516
2497.285,4.609375,-10.45787,0.4261679,0.2633622,-1.303884,-0.4399542,2.147573,880,-623,470
2497.289,4.613281,-10.49618,0.4261679,0.2011129,-1.316667,-0.406931,2.13692,845,-644,459
2497.293,4.617188,-10.49139,0.4213795,0.1244985,-1.316667,-0.3813647,2.118811,866,-584,488
2497.297,4.621094,-10.45787,0.296881,0.07182605,-1.30921,-0.3771036,2.100701,841,-626,474
2497.301,4.625,-10.50097,0.1867477,-0.01915361,-1.304949,-0.3483415,2.083657,890,-610,494
2497.305,4.628906,-10.47703,0.09576807,-0.02394202,-1.297492,-0.3419499,2.059156,868,-598,479
2497.309,4.632812,-10.4483,-0.1244985,-0.1436521,-1.283644,-0.3376888,2.025068,840,-594,468
2497.312,4.636719,-10.38126,-0.2154781,-0.3926491,-1.26873,-0.3195793,1.99524,865,-596,535
2497.316,4.640625,-10.29986,-0.3495534,-0.7086837,-1.243164,-0.3131877,1.959021,854,-591,467
2497.32,4.644531,-10.1562,-0.4644751,-0.8523358,-1.204814,-0.294013,1.921737,887,-636,503
2497.324,4.648438,-9.959879,-0.7613561,-0.9911995,-1.145159,-0.2503371,1.87167,883,-636,510
2497.328,4.652344,-9.797073,-0.9911995,-1.058237,-1.098288,-0.2609898,1.832255,870,-617,480
2497.332,4.65625,-9.581595,-1.211466,-1.058237,-1.06846,-0.2588593,1.79284,868,-590,507
2497.336,4.660156,-9.361328,-1.580173,-0.9576807,-1.051416,-0.2439456,1.757686,834,-628,478
2497.34,4.664062,-9.074024,-1.939303,-0.7661445,-1.02585,-0.2801645,1.702293,858,-662,506
2497.344,4.667969,-8.805874,-2.149993,-0.641646,-1.001349,-0.3025351,1.656486,859,-635,482
2497.348,4.671875,-8.537723,-2.355894,-0.5746084,-0.9768475,-0.309992,1.608549,887,-580,495
2497.352,4.675781,-8.298303,-2.547431,-0.4932055,-0.942759,-0.3366236,1.556351,873,-605,483
2497.355,4.679688,-7.958326,-2.691083,-0.3878607,-0.8873653,-0.3643204,1.483913,846,-667,465
2497.359,4.683594,-7.747637,-2.815581,-0.3687071,-0.8436894,-0.3685815,1.426389,873,-631,490
2497.363,4.6875,-7.503428,-2.906561,-0.3160346,-0.7957525,-0.3824299,1.365669,852,-647,490
2497.367,4.691406,-7.235277,-2.949656,-0.296881,-0.7467504,-0.386691,1.307079,863,-606,482
2497.371,4.695312,-6.92882,-2.944868,-0.3064578,-0.6860303,-0.3579289,1.226119,866,-601,518
2497.375,4.699219,-6.698976,-2.992752,-0.320823,-0.6359629,-0.3398194,1.164334,844,-634,465
2497.379,4.703125,-6.488286,-2.978387,-0.296881,-0.5869607,-0.3291667,1.100418,885,-626,498
2497.383,4.707031,-6.263232,-2.935291,-0.3016694,-0.5390238,-0.3078614,1.037568,849,-574,495
2497.387,4.710938,-6.062119,-2.978387,-0.2106897,-0.4846953,-0.2663161,0.9534117,844,-606,489
2497.391,4.714844,-6.038177,-2.96881,-0.05267244,-0.4538026,-0.2535329,0.8905611,842,-594,509
2497.395,4.71875,-5.990293,-2.887407,0.08140286,-0.4250405,-0.2471413,0.8309063,841,-634,468
2497.398,4.722656,-5.961562,-2.882619,0.2154781,-0.40267,-0.2407498,0.7691209,839,-632,492
2497.402,4.726562,-5.942409,-2.734178,0.1771709,-0.370712,-0.2311624,0.6838998,827,-626,477
2497.406,4.730469,-5.894524,-2.643199,0.1675941,-0.3355583,-0.237554,0.6167881,838,-587,492
2497.41,4.734375,-5.865794,-2.499547,0.1580173,-0.2897519,-0.237554,0.5528722,878,-647,502
2497.414,4.738281,-5.798756,-2.331952,0.1340753,-0.237554,-0.2226403,0.4868258,841,-592,497
2497.418,4.742188,-5.770026,-2.197877,0.1149217,-0.1470065,-0.1768339,0.40267,850,-627,470
2497.422,4.746094,-5.655104,-2.135628,0.09576807,-0.06391587,-0.1438107,0.3398194,857,-638,480
2497.426,4.75,-5.659893,-2.030283,0.2154781,0.03195793,-0.1203749,0.273773,853,-649,505
2497.43,4.753906,-5.659893,-1.905785,0.2154781,0.1320928,-0.09693906,0.205596,862,-608,521
2497.434,4.757812,-5.616797,-1.795651,0.3303998,0.2641856,-0.05858954,0.1182444,885,-651,492
2497.438,4.761719,-5.664681,-1.714248,0.3160346,0.3547331,-0.02343582,0.05645902,856,-631,490
2497.441,4.765625,-5.841852,-1.608904,0.3399766,0.4378237,0.006391587,-0.01171791,833,-592,483
2497.445,4.769531,-5.889736,-1.436521,0.4453215,0.5123922,0.03515373,-0.07989483,814,-629,486
2497.449,4.773438,-5.990293,-1.177947,0.6847417,0.5933523,0.06711166,-0.1715076,819,-630,485
2497.453,4.777344,-6.153098,-1.101333,0.914585,0.648746,0.07882957,-0.2428803,880,-592,475
2497.457,4.78125,-6.325481,-0.9289502,1.235408,0.7020093,0.07882957,-0.3089267,815,-613,485
2497.461,4.785156,-6.459556,-0.8619126,1.450886,0.757403,0.06817692,-0.3802994,839,-642,494
2497.465,4.789062,-6.574478,-0.5075708,1.786074,0.8117315,0.0330232,-0.4836301,835,-632,467
2497.469,4.792969,-6.646304,-0.2394202,1.953669,0.8319715,0.01171791,-0.5635249,835,-641,493
2497.473,4.796875,-6.766014,0.1101333,2.197877,0.8234494,-0.01065264,-0.6540724,837,-616,477
2497.477,4.800781,-6.943185,0.5123592,2.494758,0.7819041,-0.02130529,-0.7446198,830,-594,476
2497.48,4.804688,-7.125144,1.268927,3.131616,0.6455502,-0.02556635,-0.8692558,854,-603,458
2497.484,4.808594,-7.249643,1.881843,3.806781,0.4697816,-0.0330232,-0.9693906,809,-592,519
2497.488,4.8125,-7.422025,2.695871,4.67827,0.2364887,-0.05752428,-1.067395,880,-604,484
2497.492,4.816406,-7.565677,3.5099,5.535394,-0.05539375,-0.1097222,-1.159008,861,-609,537
2497.496,4.820312,-7.479486,4.707,6.406884,-0.4857606,-0.2109224,-1.257012,871,-614,506
2497.5,4.824219,-7.484274,5.544971,6.74686,-0.7978831,-0.3057309,-1.315602,845,-641,499
2497.504,4.828125,-7.383718,6.564901,6.799533,-1.071656,-0.3920173,-1.357147,847,-641,517
2497.508,4.832031,-7.182605,7.575254,6.584055,-1.28897,-0.459129,-1.380583,872,-640,495
2497.512,4.835938,-6.981492,8.815451,5.951985,-1.461543,-0.4985438,-1.38804,886,-656,479
2497.516,4.839844,-6.785168,9.56723,5.075708,-1.476457,-0.499609,-1.372061,825,-637,470
2497.52,4.84375,-6.876147,10.27113,4.132392,-1.396562,-0.4623248,-1.352886,869,-634,468
2497.523,4.847656,-6.976704,10.91756,3.241749,-1.247425,-0.4016047,-1.331581,824,-595,506
2497.527,4.851562,-7.359776,11.58315,1.958457,-0.9566075,-0.314253,-1.295362,874,-597,470
2497.531,4.855469,-7.589619,12.09551,1.010353,-0.7084008,-0.241815,-1.255947,867,-659,503
2497.535,4.859375,-7.958326,12.59829,-0.01436521,-0.4580637,-0.1480718,-1.199488,869,-586,453
2497.539,4.863281,-8.394071,12.90475,-1.067814,-0.2290319,-0.03834952,-1.130246,832,-645,453
2497.543,4.867188,-8.772355,13.24951,-2.375048,0.02130529,0.1502023,-0.9981528,896,-604,482
2497.547,4.871094,-9.121908,13.31655,-3.035848,0.1555286,0.3238404,-0.8671253,856,-618,478
2497.551,4.875,-9.552865,13.10586,-3.586514,0.2471413,0.5060006,-0.7094661,879,-621,515
2497.555,4.878906,-10.31422,12.69406,-3.711013,0.2961435,0.6785734,-0.5368933,858,-620,496
2497.559,4.882812,-10.87446,11.90876,-3.318364,0.294013,0.8767126,-0.309992,859,-595,507
2497.562,4.886719,-11.38203,11.32936,-2.595315,0.2460761,0.9832391,-0.1555286,844,-618,515
2497.566,4.890625,-11.82736,10.86968,-1.8579,0.1704423,1.041829,-0.02769688,867,-618,498
2497.57,4.894531,-12.06199,10.42914,-0.6129156,0.09374327,1.04822,0.07350325,859,-592,500
2497.574,4.898438,-12.03326,10.20888,0.344765,0.03089267,1.000283,0.1619202,828,-620,494
2497.578,4.902344,-11.7268,10.1562,1.154005,0.03408846,0.9299759,0.1960087,895,-638,473
2497.582,4.90625,-11.27669,10.18493,1.742979,0.09161274,0.8511463,0.2130529,859,-618,520
2497.586,4.910156,-10.60152,10.1993,2.15957,0.2503371,0.7382283,0.2098571,845,-616,511
2497.59,4.914062,-10.01255,10.14184,2.126051,0.4122573,0.6711166,0.1949434,894,-644,467
2497.594,4.917969,-9.423578,9.955091,1.910573,0.5869607,0.6263755,0.1747034,857,-596,478
2497.598,4.921875,-8.90643,9.605537,1.632846,0.7691209,0.6189186,0.1512675,865,-612,482
2497.602,4.925781,-8.236054,9.093178,1.13964,0.9917612,0.660464,0.1278317,863,-631,478
2497.605,4.929688,-7.819463,8.513781,0.7374141,1.139833,0.7275756,0.1150486,811,-613,511
2497.609,4.933594,-7.393295,7.915231,0.3399766,1.264469,0.8234494,0.1065264,845,-620,502
2497.613,4.9375,-7.153875,7.182605,-0.3543418,1.34756,0.9693906,0.1075917,882,-605,526
2497.617,4.941406,-7.091625,5.889736,-0.7900865,1.389105,1.181378,0.1022654,839,-619,499
2497.621,4.945312,-7.532158,4.702212,-0.9624691,1.34969,1.296427,0.07882957,898,-629,500
2497.625,4.949219,-8.599972,3.260903,-1.082179,1.206945,1.348625,0.03408846,885,-670,509
2497.629,4.953125,-10.47224,1.240196,-1.120486,0.90654,1.318797,-0.03195793,883,-627,491
2497.633,4.957031,-14.30775,-2.355894,-0.8762778,0.1960087,1.272991,-0.1470065,854,-634,509
2497.637,4.960938,-17.66921,-4.860229,-0.2537854,-0.5901565,1.378452,-0.2620551,838,-638,491
2497.641,4.964844,-20.48,-6.708553,0.9337386,-1.508414,1.629855,-0.4516721,864,-624,511
2497.645,4.96875,-22.14158,-6.924031,2.959233,-2.339321,1.916411,-0.7147924,883,-643,506
2497.648,4.972656,-21.55739,-4.323928,7.240066,-2.844256,1.923868,-1.209075,888,-616,468
2497.652,4.976562,-19.9868,-0.4548983,10.45308,-2.688727,1.41041,-1.591505,860,-614,459
2497.656,4.980469,-18.84237,3.428497,11.89918,-2.336125,0.5826996,-1.807754,869,-650,507
2497.66,4.984375,-18.26297,6.100426,11.94228,-2.045308,-0.2386192,-1.819472,868,-602,467
2497.664,4.988281,-16.91264,7.97748,10.90319,-1.865278,-0.8596684,-1.643703,840,-648,504
2497.668,4.992188,-14.60942,9.452308,8.657433,-1.869539,-0.8191884,-1.43065,851,-641,511
2497.672,4.996094,-11.54963,11.46344,4.774038,-1.886583,-0.4186489,-1.125985,851,-643,508
2497.676,5,-8.676587,12.83771,-0.4884171,-1.838646,0.1352886,-0.6913566,893,-616,503
2497.68,5.003906,-5.913678,12.57914,-5.760449,-1.568069,0.7914915,0.0298274,866,-620,504
2497.684,5.007812,-5.57849,10.08438,-8.049306,-1.226119,1.039698,0.5528722,878,-643,507
2497.688,5.011719,-6.531382,6.248866,-8.432378,-0.8383631,1.02585,0.9523464,908,-596,496
2497.691,5.015625,-8.001422,1.747767,-7.465121,-0.5379585,0.8905611,1.200553,848,-640,511
2497.695,5.019531,-9.557653,-4.659116,-4.290409,-0.5028048,0.7882957,1.344364,843,-614,507
2497.699,5.023438,-9.950302,-8.839393,-1.546654,-0.8085357,0.7978831,1.356082,853,-603,501
2497.703,5.027344,-9.83538,-11.83214,0.5841852,-1.243164,0.7659251,1.317732,865,-659,484
2497.707,5.03125,-9.423578,-13.5033,1.173159,-1.52972,0.6253102,1.213336,839,-647,494
2497.711,5.035156,-8.63828,-14.46577,-0.3351882,-1.372061,0.3888215,0.9406285,835,-597,479
2497.715,5.039062,-8.049306,-14.67167,-2.035071,-0.90654,0.3270362,0.6572682,839,-602,482
2497.719,5.042969,-7.398083,-14.76265,-2.892196,-0.3153183,0.3920173,0.3323625,885,-633,505
2497.723,5.046875,-6.727707,-14.62857,-2.911349,0.2748382,0.519849,-0.02343582,883,-663,503
2497.727,5.050781,-6.210559,-13.75708,-2.743755,0.974717,0.6114618,-0.5251754,863,-621,502
2497.73,5.054688,-6.234501,-12.41154,-3.505111,1.415736,0.5901565,-0.9054748,835,-597,453
2497.734,5.058594,-6.655881,-10.73081,-4.630386,1.785383,0.5592638,-1.269795,840,-610,519
2497.738,5.0625,-7.216124,-9.069236,-5.353435,2.060221,0.5624596,-1.609615,860,-613,480
2497.742,5.066406,-7.900865,-7.273585,-5.123592,2.249838,0.5848302,-1.996306,855,-607,491
2497.746,5.070312,-8.039729,-5.856217,-4.692635,2.239186,0.5709817,-2.229598,832,-585,538
2497.75,5.074219,-7.934384,-4.098873,-4.362235,2.124137,0.5443501,-2.400041,880,-613,494
2497.754,5.078125,-7.661445,-2.298434,-4.295198,1.95476,0.535828,-2.490588,843,-599,519
2497.758,5.082031,-7.513005,0.4836287,-4.673482,1.733185,0.5773733,-2.49911,883,-637,514
2497.762,5.085938,-7.733271,2.207454,-4.759673,1.605354,0.6530071,-2.434129,858,-618,520
2497.766,5.089844,-8.293515,3.754108,-4.405331,1.497762,0.7318367,-2.324407,847,-597,511
2497.77,5.09375,-9.131485,4.951209,-3.720589,1.36993,0.8074704,-2.183792,867,-622,511
2497.773,5.097656,-10.50576,5.808333,-2.365471,1.160073,0.882039,-1.967543,855,-626,507
2497.777,5.101562,-11.65019,6.306327,-1.173159,0.9661948,0.9118664,-1.79071,910,-575,512
2497.781,5.105469,-12.74673,6.512229,-0.04309563,0.757403,0.8990832,-1.604288,908,-623,493
2497.785,5.109375,-13.72356,6.655881,0.8810662,0.5550028,0.8351673,-1.421063,869,-629,489
2497.789,5.113281,-14.59505,6.828263,1.412579,0.3110572,0.6881608,-1.193096,906,-589,511
2497.793,5.117188,-14.69082,6.823475,1.307234,0.1502023,0.5507417,-1.056742,870,-615,515
2497.797,5.121094,-14.25029,6.971915,0.9624691,0.007456851,0.4239752,-0.9566075,883,-603,524
