t_native_s,t_opt_s,ax,ay,az,gx,gy,gz,mx,my,mz
2494.645,0,-8.973468,-0.2585738,4.266467,-0.0181095,0.001065264,0,282,-1056,57
2494.648,0.00390625,-8.973468,-0.2202666,4.261679,-0.01917476,0.002130529,0,252,-967,55
2494.652,0.0078125,-8.987833,-0.2681506,4.266467,-0.01597897,0.005326322,0.001065264,247,-978,-23
2494.656,0.01171875,-8.963891,-0.272939,4.261679,-0.01597897,0.002130529,0.001065264,300,-1046,10
2494.66,0.015625,-9.030929,-0.2777274,4.261679,-0.0181095,0.003195793,0,310,-1037,65
2494.664,0.01953125,-8.992621,-0.2154781,4.252102,-0.02024002,0.005326322,0.002130529,253,-1024,44
2494.668,0.0234375,-8.99741,-0.2442086,4.280833,-0.0149137,0.003195793,0,271,-992,27
2494.672,0.02734375,-8.963891,-0.272939,4.22816,-0.0181095,0.001065264,0.001065264,315,-968,6
2494.676,0.03125,-8.973468,-0.2777274,4.256891,-0.01917476,0.005326322,0.001065264,284,-990,45
2494.68,0.03515625,-8.992621,-0.2825158,4.22816,-0.01917476,0.004261058,0.002130529,237,-1023,56
2494.684,0.0390625,-9.016563,-0.2681506,4.261679,-0.02024002,0,0.003195793,276,-1011,37
2494.688,0.04296875,-9.045294,-0.2537854,4.22816,-0.02130529,0.001065264,0.001065264,255,-980,-3
2494.691,0.046875,-9.011775,-0.2633622,4.256891,-0.02130529,0.002130529,0,289,-1081,17
2494.695,0.05078125,-9.011775,-0.2681506,4.247314,-0.01917476,-0.001065264,0.001065264,309,-1022,14
2494.699,0.0546875,-9.02614,-0.3016694,4.237737,-0.02237055,-0.001065264,0.002130529,259,-1034,61
2494.703,0.05859375,-8.983045,-0.272939,4.189853,-0.02237055,-0.001065264,0.002130529,266,-963,17
2494.707,0.0625,-9.035717,-0.3256114,4.189853,-0.02237055,0,0.002130529,320,-1017,-2
2494.711,0.06640625,-9.054871,-0.2585738,4.204218,-0.02024002,-0.002130529,0.001065264,275,-1024,-24
2494.715,0.0703125,-9.02614,-0.2873042,4.232949,-0.02343582,-0.002130529,0.002130529,320,-1017,35
2494.719,0.07421875,-8.983045,-0.296881,4.247314,-0.02343582,0,0.003195793,224,-991,31
2494.723,0.078125,-8.987833,-0.2585738,4.242525,-0.02450108,-0.005326322,0.004261058,248,-1018,-8
2494.727,0.08203125,-8.983045,-0.3256114,4.185065,-0.02237055,-0.004261058,0.003195793,282,-1034,-2
2494.73,0.0859375,-9.02614,-0.3064578,4.232949,-0.02450108,-0.001065264,0.002130529,274,-1018,29
2494.734,0.08984375,-8.911219,-0.2681506,4.271256,-0.02343582,-0.005326322,0.002130529,264,-1024,35
2494.738,0.09375,-8.935161,-0.320823,4.223372,-0.02130529,-0.005326322,0.003195793,274,-966,-15
2494.742,0.09765625,-8.954314,-0.3303998,4.276044,-0.02343582,0.001065264,0.004261058,318,-984,28
2494.746,0.1015625,-8.968679,-0.3016694,4.276044,-0.02237055,0.001065264,0.003195793,313,-1011,-25
2494.75,0.1054688,-8.949526,-0.2825158,4.19943,-0.01917476,0,0.003195793,317,-1010,56
2494.754,0.109375,-8.944737,-0.3160346,4.252102,-0.02024002,-0.002130529,0.004261058,250,-987,46
2494.758,0.1132812,-8.978256,-0.3303998,4.271256,-0.0181095,0,0.002130529,218,-991,-16
2494.762,0.1171875,-9.011775,-0.3064578,4.185065,-0.0149137,-0.001065264,0.003195793,349,-1010,-18
2494.766,0.1210938,-9.021352,-0.3351882,4.252102,-0.01384844,-0.003195793,0.001065264,318,-1020,36
2494.77,0.125,-9.016563,-0.3303998,4.232949,-0.01384844,-0.002130529,0.004261058,252,-1042,47
2494.773,0.1289062,-9.021352,-0.3064578,4.185065,-0.01384844,-0.002130529,0.002130529,240,-972,34
2494.777,0.1328125,-9.054871,-0.320823,4.242525,-0.01278317,-0.005326322,0.001065264,256,-986,2
2494.781,0.1367188,-9.002198,-0.3016694,4.19943,-0.01171791,-0.002130529,0.002130529,275,-1064,19
2494.785,0.140625,-9.006987,-0.2537854,4.194641,-0.01278317,-0.005326322,0.002130529,317,-1025,18
2494.789,0.1445312,-9.050082,-0.2825158,4.252102,-0.00958738,-0.005326322,0.002130529,286,-985,38
2494.793,0.1484375,-9.021352,-0.2442086,4.209007,-0.00958738,-0.004261058,0,237,-973,-14
2494.797,0.1523438,-8.992621,-0.3160346,4.204218,-0.01065264,-0.004261058,0.003195793,291,-942,-3
2494.801,0.15625,-9.011775,-0.2873042,4.204218,-0.007456851,-0.006391587,0,307,-1046,43
2494.805,0.1601562,-8.992621,-0.272939,4.204218,-0.007456851,-0.008522115,-0.001065264,245,-1018,59
2494.809,0.1640625,-9.050082,-0.344765,4.242525,-0.00958738,-0.006391587,0.002130529,259,-955,43
2494.812,0.1679688,-9.059659,-0.2920926,4.247314,-0.007456851,-0.008522115,-0.001065264,284,-995,-9
2494.816,0.171875,-9.002198,-0.2873042,4.19943,-0.002130529,-0.01278317,-0.002130529,333,-1031,-31
2494.82,0.1757812,-9.040505,-0.3639187,4.22816,-0.007456851,-0.01171791,-0.002130529,297,-1050,40
2494.824,0.1796875,-9.011775,-0.2777274,4.242525,-0.006391587,-0.008522115,-0.002130529,258,-1033,44
2494.828,0.1835938,-9.040505,-0.3160346,4.22816,-0.004261058,-0.01278317,-0.001065264,226,-965,-23
2494.832,0.1875,-9.006987,-0.3303998,4.237737,-0.005326322,-0.01278317,0,270,-1003,0
2494.836,0.1914062,-8.992621,-0.3303998,4.209007,-0.004261058,-0.01384844,0.002130529,318,-1025,30
2494.84,0.1953125,-9.045294,-0.296881,4.209007,-0.002130529,-0.01384844,0.001065264,266,-1004,34
2494.844,0.1992188,-9.040505,-0.3256114,4.247314,-0.003195793,-0.0181095,0,258,-1032,23
2494.848,0.203125,-9.069236,-0.2873042,4.232949,-0.003195793,-0.0181095,0,302,-980,31
2494.852,0.2070312,-9.050082,-0.248997,4.180276,-0.002130529,-0.01704423,0.002130529,311,-1057,16
2494.855,0.2109375,-9.045294,-0.3256114,4.194641,-0.001065264,-0.02024002,-0.001065264,321,-1060,53
2494.859,0.2148438,-9.050082,-0.2825158,4.19943,0,-0.02237055,-0.001065264,263,-1042,57
2494.863,0.21875,-9.016563,-0.2920926,4.180276,-0.002130529,-0.0181095,-0.001065264,258,-989,22
2494.867,0.2226562,-9.011775,-0.3303998,4.209007,0,-0.02237055,-0.001065264,325,-972,-33
2494.871,0.2265625,-9.035717,-0.3016694,4.189853,0,-0.02130529,0.002130529,259,-1016,2
2494.875,0.2304688,-9.002198,-0.2681506,4.247314,-0.002130529,-0.01917476,0.001065264,278,-1059,43
2494.879,0.234375,-8.99741,-0.2633622,4.237737,0.001065264,-0.01917476,0,286,-981,34
2494.883,0.2382812,-9.045294,-0.2873042,4.261679,0,-0.02343582,0,239,-989,-5
2494.887,0.2421875,-9.002198,-0.3064578,4.189853,-0.001065264,-0.02130529,0.001065264,295,-964,-17
2494.891,0.2460938,-9.006987,-0.2873042,4.204218,0,-0.02024002,0,343,-1043,0
2494.895,0.25,-9.02614,-0.3112462,4.213795,0.001065264,-0.02024002,0.002130529,271,-1017,49
2494.898,0.2539062,-8.959103,-0.296881,4.194641,0.002130529,-0.02130529,-0.002130529,284,-963,42
2494.902,0.2578125,-8.935161,-0.2681506,4.161122,-0.003195793,-0.01917476,0,248,-979,1
2494.906,0.2617188,-8.973468,-0.3399766,4.170699,-0.002130529,-0.01917476,0,334,-983,6
2494.91,0.265625,-9.050082,-0.320823,4.204218,0,-0.02237055,-0.001065264,300,-1020,41
2494.914,0.2695312,-9.016563,-0.320823,4.209007,0.001065264,-0.02237055,-0.001065264,257,-993,30
2494.918,0.2734375,-9.040505,-0.344765,4.165911,-0.001065264,-0.02237055,0.001065264,227,-994,27
2494.922,0.2773438,-8.992621,-0.3687071,4.209007,0.001065264,-0.02343582,0,313,-991,1
2494.926,0.28125,-9.021352,-0.3160346,4.19943,0.002130529,-0.02130529,0.002130529,277,-1028,34
2494.93,0.2851562,-9.002198,-0.2633622,4.22816,-0.001065264,-0.02024002,0.002130529,242,-1040,50
2494.934,0.2890625,-8.963891,-0.3064578,4.194641,0.001065264,-0.02237055,0.002130529,258,-980,28
2494.938,0.2929688,-9.006987,-0.2585738,4.180276,0.002130529,-0.02130529,0.001065264,260,-973,-11
2494.941,0.296875,-9.040505,-0.320823,4.175488,-0.001065264,-0.02024002,0.001065264,322,-1053,-10
2494.945,0.3007812,-9.016563,-0.320823,4.209007,0,-0.01917476,-0.001065264,291,-1004,30
2494.949,0.3046875,-8.968679,-0.3016694,4.189853,-0.001065264,-0.02130529,-0.002130529,235,-1039,42
2494.953,0.3085938,-8.987833,-0.3303998,4.19943,-0.001065264,-0.02130529,-0.002130529,261,-1004,50
2494.957,0.3125,-8.99741,-0.3351882,4.22816,-0.002130529,-0.01917476,-0.002130529,348,-978,24
2494.961,0.3164062,-8.949526,-0.3303998,4.19943,-0.001065264,-0.02024002,-0.003195793,309,-1018,5
2494.965,0.3203125,-8.959103,-0.3160346,4.165911,-0.003195793,-0.02130529,-0.002130529,304,-1088,28
2494.969,0.3242188,-8.954314,-0.3495534,4.180276,-0.004261058,-0.0181095,-0.005326322,270,-996,70
2494.973,0.328125,-8.959103,-0.3351882,4.165911,-0.007456851,-0.01597897,-0.002130529,242,-1007,26
2494.977,0.3320312,-9.035717,-0.320823,4.180276,-0.007456851,-0.01917476,-0.003195793,295,-1026,-17
2494.98,0.3359375,-9.050082,-0.3016694,4.151546,-0.00958738,-0.01917476,-0.002130529,295,-1021,7
2494.984,0.3398438,-9.069236,-0.3256114,4.175488,-0.01278317,-0.0181095,-0.001065264,238,-1026,51
2494.988,0.34375,-9.074024,-0.3064578,4.151546,-0.01278317,-0.02130529,-0.001065264,261,-988,8
2494.992,0.3476562,-8.99741,-0.3016694,4.180276,-0.01597897,-0.02450108,0.001065264,313,-1013,-31
2494.996,0.3515625,-9.02614,-0.2873042,4.180276,-0.01917476,-0.02130529,0.002130529,322,-1026,21
2495,0.3554688,-9.059659,-0.296881,4.156334,-0.02024002,-0.02130529,0.002130529,302,-1004,1
2495.004,0.359375,-9.059659,-0.2920926,4.146757,-0.02024002,-0.02556635,0.003195793,309,-983,78
2495.008,0.3632812,-9.083601,-0.320823,4.218583,-0.02556635,-0.02450108,0.005326322,271,-960,7
2495.012,0.3671875,-9.102755,-0.3734955,4.204218,-0.0298274,-0.02556635,0.004261058,334,-1003,-1
2495.016,0.3710938,-9.069236,-0.3734955,4.19943,-0.03195793,-0.03195793,0.004261058,300,-1016,55
2495.02,0.375,-9.126697,-0.4118027,4.194641,-0.0330232,-0.03195793,0.007456851,265,-1007,72
2495.023,0.3789062,-9.141062,-0.4501099,4.213795,-0.03515373,-0.0298274,0.004261058,234,-993,24
2495.027,0.3828125,-9.102755,-0.4548983,4.232949,-0.03728426,-0.03408846,0.008522115,260,-995,-37
2495.031,0.3867188,-9.083601,-0.4501099,4.285621,-0.04154531,-0.03941478,0.008522115,328,-1012,32
2495.035,0.390625,-9.069236,-0.4405331,4.213795,-0.04474111,-0.03621899,0.008522115,327,-1020,35
2495.039,0.3945312,-9.059659,-0.3878607,4.213795,-0.04367584,-0.03515373,0.01384844,233,-1018,68
2495.043,0.3984375,-9.059659,-0.4261679,4.261679,-0.0479369,-0.04048005,0.01171791,263,-997,49
2495.047,0.4023438,-9.097966,-0.4213795,4.22816,-0.05006743,-0.04154531,0.0181095,287,-983,-18
2495.051,0.40625,-9.074024,-0.4453215,4.189853,-0.05432849,-0.04154531,0.01917476,292,-1032,55
2495.055,0.4101562,-9.174581,-0.4501099,4.156334,-0.05858954,-0.04580637,0.02237055,256,-1012,14
2495.059,0.4140625,-9.188946,-0.4453215,4.156334,-0.06391587,-0.05432849,0.02556635,258,-985,34
2495.062,0.4179688,-9.155427,-0.4165911,4.19943,-0.06817692,-0.05539375,0.02769688,280,-982,12
2495.066,0.421875,-9.160216,-0.4118027,4.113238,-0.06924219,-0.05752428,0.03515373,286,-1024,16
2495.07,0.4257812,-9.241618,-0.4596867,4.185065,-0.07563377,-0.06817692,0.0330232,299,-1029,41
2495.074,0.4296875,-9.2081,-0.3926491,4.175488,-0.07669904,-0.07030745,0.03515373,234,-964,64
2495.078,0.4335938,-9.193734,-0.4213795,4.161122,-0.07989483,-0.06711166,0.03834952,249,-996,-13
2495.082,0.4375,-9.150639,-0.3782839,4.141969,-0.0809601,-0.07030745,0.04261058,291,-1002,-5
2495.086,0.4414062,-9.160216,-0.3256114,4.122815,-0.08522115,-0.07350325,0.04474111,324,-1016,4
2495.09,0.4453125,-9.136274,-0.3591302,4.10845,-0.09161274,-0.06817692,0.05006743,272,-1036,33
2495.094,0.4492188,-9.126697,-0.296881,4.046201,-0.0958738,-0.06924219,0.05752428,251,-1001,55
2495.098,0.453125,-9.150639,-0.2346318,4.060566,-0.1012001,-0.07563377,0.06178534,242,-1041,14
2495.102,0.4570312,-9.107543,-0.2298434,4.046201,-0.1075917,-0.07350325,0.06924219,268,-1033,3
2495.105,0.4609375,-9.064447,-0.2777274,4.027047,-0.1097222,-0.07137272,0.07243798,297,-1039,53
2495.109,0.4648438,-9.083601,-0.248997,4.036624,-0.1118528,-0.07350325,0.07669904,286,-1039,17
2495.113,0.46875,-9.083601,-0.2825158,4.036624,-0.1161138,-0.07137272,0.08202536,223,-990,16
2495.117,0.4726562,-9.093178,-0.3303998,4.007894,-0.1193096,-0.06711166,0.08309063,293,-983,-18
2495.121,0.4765625,-9.040505,-0.296881,4.003105,-0.1214401,-0.0660464,0.08735168,311,-1021,-7
2495.125,0.4804688,-9.040505,-0.3256114,4.074931,-0.1257012,-0.0628506,0.09161274,326,-1015,25
2495.129,0.484375,-8.963891,-0.3591302,4.070143,-0.1310275,-0.05219796,0.09480853,266,-952,68
2495.133,0.4882812,-8.983045,-0.320823,4.098873,-0.1331581,-0.04900216,0.09693906,266,-992,19
2495.137,0.4921875,-8.944737,-0.344765,4.060566,-0.1363538,-0.05113269,0.09800433,331,-997,-18
2495.141,0.4960938,-8.901642,-0.3351882,4.01747,-0.144876,-0.04580637,0.1043959,340,-1004,47
2495.145,0.5,-8.963891,-0.3591302,4.022259,-0.1470065,-0.03834952,0.1065264,259,-1057,16
2495.148,0.5039062,-8.911219,-0.3543418,3.96001,-0.149137,-0.03941478,0.1118528,278,-969,57
2495.152,0.5078125,-8.882488,-0.3399766,4.007894,-0.1533981,-0.04154531,0.1161138,269,-1013,-5
2495.156,0.5117188,-8.892065,-0.344765,3.940856,-0.1544633,-0.02876214,0.1214401,316,-1005,2
2495.16,0.515625,-8.882488,-0.3687071,3.98874,-0.1544633,-0.02450108,0.1246359,348,-1019,21
2495.164,0.5195312,-8.901642,-0.3974375,3.969586,-0.1544633,-0.02450108,0.1299623,226,-946,33
2495.168,0.5234375,-8.872911,-0.3926491,3.983952,-0.1555286,-0.01597897,0.1320928,273,-992,6
2495.172,0.5273438,-8.935161,-0.4213795,4.065354,-0.1587244,-0.006391587,0.1342233,286,-968,-1
2495.176,0.53125,-8.973468,-0.4118027,4.022259,-0.1555286,-0.006391587,0.1352886,295,-1019,39
2495.18,0.5351562,-8.949526,-0.3782839,4.065354,-0.1608549,0.002130529,0.1384844,251,-998,81
2495.184,0.5390625,-8.944737,-0.4118027,4.094085,-0.1629855,0.0149137,0.1395496,235,-976,34
2495.188,0.5429688,-8.987833,-0.4261679,4.074931,-0.1629855,0.01597897,0.1406149,266,-967,-10
2495.191,0.546875,-9.054871,-0.4309563,4.132392,-0.1640507,0.01597897,0.1384844,289,-1033,-22
2495.195,0.5507812,-9.074024,-0.3687071,4.118027,-0.1640507,0.02769688,0.1416802,334,-1026,66
2495.199,0.5546875,-9.107543,-0.4070143,4.127604,-0.165116,0.02769688,0.1416802,267,-1044,20
2495.203,0.5585938,-9.097966,-0.3495534,4.13718,-0.1640507,0.02450108,0.1427454,249,-978,-43
2495.207,0.5625,-9.121908,-0.344765,4.122815,-0.1640507,0.02876214,0.144876,281,-1010,49
2495.211,0.5664062,-9.131485,-0.3782839,4.185065,-0.1619202,0.03941478,0.1480718,320,-1060,19
2495.215,0.5703125,-9.136274,-0.3974375,4.141969,-0.1565939,0.04261058,0.1480718,274,-995,9
2495.219,0.5742188,-9.11712,-0.4261679,4.122815,-0.1544633,0.04474111,0.1470065,240,-970,42
2495.223,0.578125,-9.179369,-0.4596867,4.180276,-0.1544633,0.05432849,0.1480718,251,-974,10
2495.227,0.5820312,-9.179369,-0.4932055,4.256891,-0.1480718,0.05858954,0.144876,320,-1013,-15
2495.23,0.5859375,-9.169792,-0.521936,4.223372,-0.1438107,0.05752428,0.1438107,313,-1028,32
2495.234,0.5898438,-9.184158,-0.5554548,4.19943,-0.1416802,0.06391587,0.1406149,309,-1014,66
2495.238,0.59375,-9.102755,-0.5267244,4.218583,-0.1342233,0.07350325,0.144876,239,-977,17
2495.242,0.5976562,-9.11712,-0.545878,4.242525,-0.1267665,0.07030745,0.1470065,321,-1013,0
2495.246,0.6015625,-9.045294,-0.4692635,4.180276,-0.1203749,0.07030745,0.1523328,330,-1028,28
2495.25,0.6054688,-9.016563,-0.545878,4.19943,-0.1097222,0.07563377,0.1555286,323,-998,41
2495.254,0.609375,-8.911219,-0.5027823,4.232949,-0.09267801,0.07882957,0.1597897,281,-969,13
2495.258,0.6132812,-8.868123,-0.521936,4.213795,-0.0777643,0.07030745,0.1619202,273,-961,-9
2495.262,0.6171875,-8.78672,-0.5123592,4.213795,-0.06072007,0.07669904,0.1672465,306,-1025,-12
2495.266,0.6210938,-8.647856,-0.5410896,4.261679,-0.04261058,0.08415589,0.1683118,277,-1004,53
2495.27,0.625,-8.513781,-0.5410896,4.280833,-0.02130529,0.08202536,0.169377,218,-1034,16
2495.273,0.6289062,-8.51857,-0.5793968,4.338293,-0.008522115,0.07669904,0.1640507,301,-1006,75
2495.277,0.6328125,-8.441955,-0.617704,4.357447,0.01171791,0.0809601,0.1576591,268,-972,1
2495.281,0.6367188,-8.322245,-0.5650316,4.343082,0.03408846,0.07669904,0.1502023,318,-1056,38
2495.285,0.640625,-8.245631,-0.6033388,4.400543,0.05752428,0.0628506,0.1406149,323,-1049,70
2495.289,0.6445312,-8.159439,-0.6320692,4.429273,0.09054748,0.05432849,0.1235707,255,-980,60
2495.293,0.6484375,-8.092402,-0.6991069,4.46758,0.1150486,0.04687164,0.1065264,237,-972,-52
2495.297,0.6523438,-8.030152,-0.6943185,4.481946,0.1438107,0.03089267,0.08522115,310,-978,13
2495.301,0.65625,-7.910442,-0.6847417,4.491522,0.169377,0.01278317,0.06391587,311,-1017,30
2495.305,0.6601562,-7.85777,-0.6847417,4.414908,0.1917476,0,0.02876214,234,-1027,65
2495.309,0.6640625,-7.829039,-0.6943185,4.290409,0.205596,-0.01704423,-0.006391587,268,-1017,69
2495.312,0.6679688,-7.872135,-0.5841852,4.362235,0.2130529,-0.03089267,-0.04687164,300,-1017,17
2495.316,0.671875,-7.862558,-0.5123592,4.156334,0.2087918,-0.03941478,-0.08415589,312,-1056,-6
2495.32,0.6757812,-7.8865,-0.5123592,4.036624,0.2109224,-0.0479369,-0.1459412,316,-1038,44
2495.324,0.6796875,-7.896077,-0.5171476,3.864241,0.2119876,-0.05858954,-0.1949434,297,-1008,82
2495.328,0.6835938,-7.852981,-0.4740519,3.969586,0.2098571,-0.05539375,-0.2354234,267,-990,13
2495.332,0.6875,-7.97748,-0.4022259,3.96001,0.2077266,-0.05326322,-0.2705772,308,-979,13
2495.336,0.6914062,-7.939173,-0.2920926,3.878607,0.2087918,-0.05858954,-0.3110572,307,-1049,-2
2495.34,0.6953125,-7.97748,-0.1532289,3.811569,0.205596,-0.05965481,-0.3376888,296,-1065,55
2495.344,0.6992188,-7.943961,-0.02873042,3.696647,0.1970739,-0.04367584,-0.3621899,291,-997,50
2495.348,0.703125,-8.049306,0.03830723,3.725378,0.1832255,-0.02769688,-0.3845605,232,-967,-17
2495.352,0.7070312,-8.212112,0.09097966,3.691859,0.1704423,-0.008522115,-0.4143879,295,-1041,-7
2495.355,0.7109375,-8.350975,0.1197101,3.624821,0.1544633,0.005326322,-0.4346279,314,-1040,31
2495.359,0.7148438,-8.585607,0.1149217,3.653552,0.1427454,0.01597897,-0.4495416,250,-1040,78
2495.363,0.71875,-8.75799,0.1005565,3.667917,0.1395496,0.02450108,-0.4601942,254,-956,25
2495.367,0.7226562,-8.944737,0.06224924,3.648763,0.1363538,0.03408846,-0.4644553,284,-985,1
2495.371,0.7265625,-9.050082,0.05267244,3.586514,0.1203749,0.04687164,-0.46339,316,-1033,8
2495.375,0.7304688,-9.227253,-0.01436521,3.624821,0.112918,0.05645902,-0.4612595,297,-1058,8
2495.379,0.734375,-9.366117,-0.02394202,3.572149,0.112918,0.05965481,-0.4538026,275,-1016,60
2495.383,0.7382812,-9.495404,-0.05746084,3.481169,0.1022654,0.0660464,-0.4399542,260,-990,-11
2495.387,0.7421875,-9.591172,-0.04309563,3.466804,0.09374327,0.07350325,-0.4218447,297,-977,-17
2495.391,0.7460938,-9.758766,-0.1340753,3.433285,0.09480853,0.07882957,-0.4048005,289,-1033,62
2495.395,0.75,-9.864111,-0.2059013,3.394978,0.09267801,0.08202536,-0.386691,243,-1052,36
2495.398,0.7539062,-9.964667,-0.3256114,3.351882,0.08735168,0.07989483,-0.3632552,275,-980,47
2495.402,0.7578125,-10.1562,-0.4501099,3.385401,0.08628642,0.07669904,-0.3291667,305,-1000,8
2495.406,0.7617188,-10.24718,-0.5363012,3.347094,0.08841695,0.07456851,-0.2993393,299,-1039,-26
2495.41,0.765625,-10.38126,-0.4692635,3.337517,0.08628642,0.07456851,-0.2695119,324,-1036,23
2495.414,0.7695312,-10.51055,-0.5075708,3.256114,0.08202536,0.07030745,-0.2386192,253,-974,59
2495.418,0.7734375,-10.49139,-0.4548983,3.165135,0.08735168,0.07137272,-0.1970739,270,-985,4
2495.422,0.7773438,-10.57279,-0.4165911,3.160346,0.09054748,0.07137272,-0.169377,310,-982,26
2495.426,0.78125,-10.52012,-0.3543418,3.069367,0.08948221,0.07882957,-0.144876,303,-1042,33
2495.43,0.7851562,-10.57279,-0.320823,3.112462,0.09267801,0.07989483,-0.1171791,263,-1040,62
2495.434,0.7890625,-10.55364,-0.2059013,3.064578,0.09693906,0.07669904,-0.08628642,269,-1007,42
2495.438,0.7929688,-10.62547,-0.1532289,2.964022,0.09374327,0.07669904,-0.0628506,231,-996,-13
2495.441,0.796875,-10.66377,-0.1149217,2.925714,0.09161274,0.07137272,-0.04261058,297,-1036,-3
2495.445,0.8007812,-10.67814,0.004788403,2.987964,0.09374327,0.06391587,-0.0181095,333,-1009,31
2495.449,0.8046875,-10.82658,0.1197101,3.040636,0.08948221,0.05432849,0.0181095,246,-1041,27
2495.453,0.8085938,-10.97981,0.1819593,3.122039,0.08309063,0.04261058,0.04261058,261,-990,-38
2495.457,0.8125,-11.1091,0.2202666,3.169923,0.08522115,0.02237055,0.06817692,317,-976,1
2495.461,0.8164062,-11.20486,0.3878607,3.236961,0.08735168,-0.001065264,0.09800433,278,-1032,22
2495.465,0.8203125,-11.31021,0.3926491,3.275268,0.07989483,-0.02237055,0.1246359,264,-1003,47
2495.469,0.8242188,-11.3533,0.4357447,3.366248,0.07989483,-0.05219796,0.1608549,258,-981,56
2495.473,0.828125,-11.42513,0.4453215,3.442862,0.0777643,-0.0777643,0.1864213,234,-1013,-9
2495.477,0.8320312,-11.36767,0.5267244,3.476381,0.07243798,-0.09693906,0.2130529,281,-1060,2
2495.48,0.8359375,-11.33415,0.5363012,3.519476,0.0628506,-0.1171791,0.2386192,314,-1027,55
2495.484,0.8398438,-11.16656,0.6129156,3.576937,0.05006743,-0.149137,0.2705772,250,-1037,49
2495.488,0.84375,-11.00854,0.6655881,3.557784,0.04048005,-0.1715076,0.2929477,248,-981,8
2495.492,0.8476562,-10.82179,0.6703765,3.576937,0.02876214,-0.1821602,0.3121225,292,-997,-16
2495.496,0.8515625,-10.6542,0.7565677,3.572149,0.01704423,-0.1970739,0.334493,284,-1072,10
2495.5,0.8554688,-10.28549,0.7565677,3.610456,0.007456851,-0.2205097,0.3547331,291,-1016,52
2495.504,0.859375,-10.06522,0.6895301,3.610456,-0.003195793,-0.2269013,0.3685815,263,-996,41
2495.508,0.8632812,-9.878476,0.7326257,3.548207,-0.02024002,-0.2300971,0.3824299,258,-976,10
2495.512,0.8671875,-9.648633,0.7326257,3.476381,-0.02663161,-0.2343582,0.3920173,313,-1017,17
2495.516,0.8710938,-9.390059,0.7422025,3.442862,-0.03941478,-0.2386192,0.4048005,275,-1023,48
2495.52,0.875,-9.169792,0.6272808,3.380613,-0.04900216,-0.2322276,0.4090615,263,-1043,62
2495.523,0.8789062,-9.035717,0.5554548,3.366248,-0.05965481,-0.2300971,0.4133226,273,-996,-10
2495.527,0.8828125,-8.75799,0.4548983,3.351882,-0.0660464,-0.2322276,0.4111921,278,-948,25
2495.531,0.8867188,-8.595184,0.3399766,3.323152,-0.0777643,-0.2173139,0.4111921,294,-1019,7
2495.535,0.890625,-8.485051,0.1819593,3.32794,-0.08415589,-0.2066613,0.4101268,329,-1043,70
2495.539,0.8945312,-8.317457,0.1149217,3.280056,-0.07989483,-0.2002697,0.4090615,263,-980,46
2495.543,0.8984375,-8.226477,0.06703765,3.227384,-0.07989483,-0.185356,0.4058658,266,-1022,19
2495.547,0.9023438,-8.135497,-0.1532289,3.198653,-0.08309063,-0.1576591,0.3984089,293,-983,35
2495.551,0.90625,-8.087613,-0.1723825,3.122039,-0.07563377,-0.149137,0.3898868,293,-1001,50
2495.555,0.9101562,-8.082825,-0.2920926,3.150769,-0.06924219,-0.1416802,0.3834952,272,-1032,36
2495.559,0.9140625,-8.087613,-0.3303998,3.141193,-0.06711166,-0.1171791,0.3749731,236,-1004,34
2495.562,0.9179688,-8.12592,-0.3399766,3.102885,-0.0628506,-0.1001349,0.3643204,266,-993,-3
2495.566,0.921875,-8.173804,-0.4261679,3.112462,-0.05006743,-0.08735168,0.3462109,315,-997,22
2495.57,0.9257812,-8.101978,-0.4644751,3.131616,-0.03728426,-0.0777643,0.3312972,299,-1022,66
2495.574,0.9296875,-8.245631,-0.4932055,3.08852,-0.0330232,-0.05432849,0.3195793,238,-1063,15
2495.578,0.9335938,-8.33661,-0.5985504,3.102885,-0.02237055,-0.04474111,0.3036004,288,-988,-5
2495.582,0.9375,-8.470685,-0.6943185,3.064578,-0.001065264,-0.03728426,0.278034,258,-983,-10
2495.586,0.9414062,-8.57603,-0.7422025,3.064578,0.008522115,-0.02237055,0.2609898,306,-1023,31
2495.59,0.9453125,-8.676587,-0.794875,3.026271,0.01917476,-0.0149137,0.241815,223,-1018,53
2495.594,0.9492188,-8.78672,-0.7757213,3.031059,0.03515373,-0.01384844,0.2258361,263,-964,13
2495.598,0.953125,-8.901642,-0.7134721,3.031059,0.05432849,-0.00958738,0.2024002,248,-982,10
2495.602,0.9570312,-9.006987,-0.7134721,2.99754,0.06391587,-0.006391587,0.1842907,315,-1042,2
2495.605,0.9609375,-9.112332,-0.6655881,2.978387,0.07456851,-0.003195793,0.1704423,272,-1031,17
2495.609,0.9648438,-9.232042,-0.5793968,2.987964,0.09161274,-0.007456851,0.1555286,228,-1008,26
2495.613,0.96875,-9.318233,-0.4884171,2.973598,0.1043959,-0.00958738,0.1384844,244,-1000,-28
2495.617,0.9726562,-9.289502,-0.3830723,2.949656,0.1097222,-0.00958738,0.1257012,310,-988,15
2495.621,0.9765625,-9.346963,-0.3782839,2.873042,0.1193096,-0.01171791,0.1139833,263,-1046,43
2495.625,0.9804688,-9.366117,-0.2777274,2.844312,0.1310275,-0.01917476,0.1022654,311,-1017,79
2495.629,0.984375,-9.418789,-0.2011129,2.853888,0.1352886,-0.02237055,0.08841695,233,-982,109
2495.633,0.9882812,-9.380482,-0.1005565,2.829946,0.1352886,-0.02450108,0.0809601,248,-969,-23
2495.637,0.9921875,-9.35654,0.02394202,2.825158,0.1406149,-0.02450108,0.07669904,283,-1033,-15
2495.641,0.9960938,-9.366117,0.07661445,2.777274,0.1438107,-0.02663161,0.06924219,300,-989,24
2495.645,1,-9.370905,0.1867477,2.743755,0.1320928,-0.02556635,0.06498113,253,-1068,31
2495.648,1.003906,-9.303868,0.2442086,2.724601,0.1278317,-0.0298274,0.06178534,276,-972,30
2495.652,1.007812,-9.299079,0.296881,2.667141,0.1225054,-0.03621899,0.05965481,271,-984,12
2495.656,1.011719,-9.313444,0.4261679,2.60968,0.1171791,-0.03195793,0.05858954,295,-1035,-21
2495.66,1.015625,-9.188946,0.4165911,2.557007,0.1001349,-0.02769688,0.06072007,325,-1037,53
2495.664,1.019531,-9.203311,0.4979939,2.557007,0.0958738,-0.03089267,0.0628506,261,-976,45
2495.668,1.023438,-9.217676,0.4979939,2.595315,0.08522115,-0.0330232,0.06711166,235,-989,-14
2495.672,1.027344,-9.23683,0.4692635,2.552219,0.0777643,-0.03515373,0.07030745,296,-970,20
2495.676,1.03125,-9.217676,0.4836287,2.451662,0.06924219,-0.0330232,0.07882957,297,-1030,66
2495.68,1.035156,-9.270349,0.5363012,2.437297,0.06178534,-0.04474111,0.08415589,252,-1040,33
2495.684,1.039062,-9.313444,0.4501099,2.418144,0.05432849,-0.05006743,0.08841695,259,-1007,44
2495.688,1.042969,-9.375694,0.4213795,2.30801,0.04474111,-0.05006743,0.09374327,268,-1013,-5
2495.691,1.046875,-9.366117,0.3878607,2.336741,0.03834952,-0.05539375,0.09906959,283,-1011,3
2495.695,1.050781,-9.361328,0.3687071,2.360683,0.04048005,-0.06711166,0.1054612,295,-1029,74
2495.699,1.054688,-9.404424,0.3303998,2.418144,0.03515373,-0.06817692,0.1054612,263,-965,35
2495.703,1.058594,-9.35654,0.3687071,2.408567,0.03089267,-0.07030745,0.1097222,244,-986,21
2495.707,1.0625,-9.409213,0.3112462,2.432509,0.03195793,-0.07456851,0.1097222,275,-991,24
2495.711,1.066406,-9.442731,0.3160346,2.418144,0.03834952,-0.08309063,0.1097222,298,-1032,29
2495.715,1.070312,-9.44752,0.2873042,2.48997,0.04048005,-0.08309063,0.108657,252,-1032,40
2495.719,1.074219,-9.442731,0.248997,2.504335,0.04261058,-0.0809601,0.1054612,282,-995,56
2495.723,1.078125,-9.509769,0.248997,2.456451,0.04367584,-0.08522115,0.1043959,274,-969,18
2495.727,1.082031,-9.44752,0.2346318,2.403778,0.05752428,-0.08841695,0.1001349,307,-1003,8
2495.73,1.085938,-9.543288,0.2633622,2.384625,0.05858954,-0.08735168,0.09800433,291,-1034,13
2495.734,1.089844,-9.509769,0.3639187,2.442086,0.06178534,-0.08841695,0.09267801,240,-1007,20
2495.738,1.09375,-9.509769,0.3591302,2.466028,0.06391587,-0.09161274,0.09054748,219,-961,12
2495.742,1.097656,-9.504981,0.4596867,2.494758,0.07456851,-0.09693906,0.08415589,345,-989,-10
2495.746,1.101562,-9.44752,0.4979939,2.475605,0.07456851,-0.09374327,0.08202536,310,-1016,21
2495.75,1.105469,-9.485827,0.5315128,2.504335,0.07563377,-0.09054748,0.07989483,277,-1016,44
2495.754,1.109375,-9.471462,0.6033388,2.513912,0.0777643,-0.09267801,0.07882957,228,-997,62
2495.758,1.113281,-9.437943,0.6943185,2.533065,0.07989483,-0.0958738,0.0777643,240,-986,14
2495.762,1.117188,-9.418789,0.794875,2.537854,0.07456851,-0.09161274,0.0777643,290,-1007,-21
2495.766,1.121094,-9.35654,0.8379706,2.60968,0.06711166,-0.08628642,0.0809601,274,-1018,7
2495.77,1.125,-9.423578,0.8954314,2.652775,0.06072007,-0.08522115,0.08415589,261,-1030,56
2495.773,1.128906,-9.394847,0.9720459,2.681506,0.05432849,-0.08522115,0.08628642,228,-957,-17
2495.777,1.132812,-9.323021,1.024718,2.686294,0.04367584,-0.08309063,0.08948221,288,-967,-5
2495.781,1.136719,-9.294291,1.096544,2.762909,0.03408846,-0.07989483,0.09267801,298,-1059,-8
2495.785,1.140625,-9.275137,1.091756,2.762909,0.02663161,-0.08309063,0.09693906,309,-1046,23
2495.789,1.144531,-9.184158,1.115698,2.844312,0.0181095,-0.08309063,0.1022654,267,-994,37
2495.793,1.148438,-9.169792,1.197101,2.810793,0.003195793,-0.0809601,0.108657,263,-961,-13
2495.797,1.152344,-9.155427,1.244985,2.887407,-0.003195793,-0.08202536,0.112918,293,-994,-15
2495.801,1.15625,-9.107543,1.321599,2.94008,-0.01065264,-0.0809601,0.1182444,306,-1052,65
2495.805,1.160156,-9.050082,1.292869,2.935291,-0.0181095,-0.07882957,0.1235707,251,-1044,36
2495.809,1.164062,-8.978256,1.345541,3.016694,-0.03195793,-0.07137272,0.1310275,275,-967,68
2495.812,1.167969,-8.901642,1.383849,3.107674,-0.03728426,-0.06817692,0.1342233,313,-967,-17
2495.816,1.171875,-8.872911,1.374272,3.045425,-0.03728426,-0.06072007,0.1406149,291,-1035,10
2495.82,1.175781,-8.930372,1.441309,3.093309,-0.03834952,-0.05752428,0.1427454,318,-1044,59
2495.824,1.179688,-8.882488,1.460463,3.05979,-0.04154531,-0.05645902,0.149137,268,-982,43
2495.828,1.183594,-8.892065,1.417367,3.112462,-0.03834952,-0.05219796,0.149137,276,-959,27
2495.832,1.1875,-8.853758,1.345541,3.040636,-0.0298274,-0.04687164,0.1480718,282,-1006,0
2495.836,1.191406,-8.872911,1.268927,3.021482,-0.02024002,-0.03728426,0.149137,300,-1027,57
2495.84,1.195312,-8.920795,1.149217,2.949656,-0.01278317,-0.02450108,0.1502023,271,-1016,33
2495.844,1.199219,-8.935161,1.101333,2.892196,-0.005326322,-0.02343582,0.1480718,248,-1006,41
2495.848,1.203125,-9.030929,0.9959879,2.839523,0.00958738,-0.01597897,0.149137,278,-976,-29
2495.852,1.207031,-9.030929,0.9528923,2.82037,0.02769688,-0.01278317,0.1512675,273,-1032,14
2495.855,1.210938,-9.155427,0.8858546,2.801216,0.03834952,-0.002130529,0.1512675,305,-1035,37
2495.859,1.214844,-9.323021,0.8331822,2.72939,0.04900216,0.01065264,0.1555286,240,-1035,59
2495.863,1.21875,-9.409213,0.7326257,2.643199,0.05965481,0.00958738,0.1619202,269,-973,-3
2495.867,1.222656,-9.586383,0.7422025,2.542642,0.07989483,0.01278317,0.1672465,287,-940,4
2495.871,1.226562,-9.734824,0.641646,2.5187,0.0958738,0.01171791,0.1747034,275,-1023,-12
2495.875,1.230469,-10.01255,0.6272808,2.451662,0.112918,0.005326322,0.1842907,258,-1022,78
2495.879,1.234375,-10.18015,0.6320692,2.480393,0.1193096,-0.01384844,0.1917476,304,-984,33
2495.883,1.238281,-10.33337,0.5267244,2.432509,0.1331581,-0.02237055,0.1960087,240,-1011,-6
2495.887,1.242188,-10.51533,0.5171476,2.504335,0.1459412,-0.03515373,0.201335,292,-1007,16
2495.891,1.246094,-10.76912,0.5075708,2.480393,0.1597897,-0.05645902,0.2034655,265,-1067,39
2495.895,1.25,-10.89362,0.6033388,2.456451,0.1640507,-0.07137272,0.2034655,258,-1014,4
2495.898,1.253906,-11.06121,0.6081272,2.42772,0.1661813,-0.08735168,0.2034655,250,-990,29
2495.902,1.257812,-11.09473,0.7374141,2.566584,0.1704423,-0.1033307,0.1992044,314,-965,24
2495.906,1.261719,-11.25275,0.8571242,2.523489,0.1715076,-0.1097222,0.1896171,342,-994,-1
2495.91,1.265625,-11.29106,0.9959879,2.48997,0.1629855,-0.1171791,0.1832255,307,-1006,94
2495.914,1.269531,-11.315,1.096544,2.461239,0.1555286,-0.1203749,0.1736381,282,-966,43
2495.918,1.273438,-11.36767,1.244985,2.566584,0.1438107,-0.1257012,0.1629855,276,-976,-10
2495.922,1.277344,-11.32936,1.441309,2.695871,0.1257012,-0.1267665,0.1480718,291,-961,6
2495.926,1.28125,-11.25754,1.493982,2.710236,0.1065264,-0.1203749,0.1363538,312,-1006,32
2495.93,1.285156,-11.24317,1.608904,2.858677,0.09267801,-0.1203749,0.1203749,260,-1030,8
2495.934,1.289062,-11.19529,1.656788,3.064578,0.0809601,-0.1182444,0.1075917,243,-985,67
2495.938,1.292969,-11.19529,1.647211,3.303998,0.06711166,-0.1065264,0.09161274,309,-1014,27
2495.941,1.296875,-11.1474,1.613692,3.500323,0.05645902,-0.09693906,0.08415589,319,-1047,-15
2495.945,1.300781,-11.13304,1.647211,3.734955,0.05006743,-0.08628642,0.07350325,304,-1014,53
2495.949,1.304688,-11.17613,1.584961,3.931279,0.05113269,-0.07350325,0.06178534,239,-986,54
2495.953,1.308594,-11.15219,1.49877,4.247314,0.05432849,-0.06391587,0.05006743,247,-986,35
2495.957,1.3125,-11.18571,1.359907,4.458003,0.0777643,-0.03941478,0.04580637,263,-982,0
2495.961,1.316406,-11.20008,1.273715,4.525041,0.1012001,-0.01384844,0.03728426,264,-1008,62
2495.965,1.320312,-11.22881,1.067814,4.539406,0.1171791,0.006391587,0.02237055,233,-1046,41
2495.969,1.324219,-11.25275,0.8523358,4.601656,0.1257012,0.02237055,0.01384844,241,-978,39
2495.973,1.328125,-11.1905,0.6655881,4.644751,0.1523328,0.0479369,0,265,-1006,1
2495.977,1.332031,-11.32457,0.5602432,4.692635,0.1704423,0.07030745,-0.007456851,281,-1053,-26
2495.98,1.335938,-11.41077,0.4309563,4.730942,0.1789644,0.08522115,-0.007456851,287,-1038,32
2495.984,1.339844,-11.63582,0.3830723,4.860229,0.1725728,0.09054748,-0.002130529,267,-1009,56
2495.988,1.34375,-11.70286,0.2298434,4.774038,0.1661813,0.08628642,-0.002130529,219,-1003,-6
2495.992,1.347656,-11.7268,0.1244985,4.764461,0.169377,0.08522115,-0.004261058,307,-960,11
2495.996,1.351562,-11.65019,0.01436521,4.874595,0.1747034,0.09161274,-0.01065264,294,-1029,-1
2496,1.355469,-11.55921,-0.07661445,4.788403,0.1629855,0.1022654,-0.01917476,256,-1003,31
2496.004,1.359375,-11.26711,-0.06224924,4.793192,0.1395496,0.1065264,-0.0330232,233,-984,26
2496.008,1.363281,-11.066,-0.03351882,4.745308,0.1310275,0.1107875,-0.04261058,267,-992,27
2496.012,1.367188,-10.8601,0.1101333,4.716577,0.1246359,0.1193096,-0.05326322,281,-1037,-28
2496.016,1.371094,-10.6925,0.2346318,4.730942,0.1161138,0.1203749,-0.06817692,330,-1060,26
2496.02,1.375,-10.39084,0.4501099,4.668693,0.09480853,0.1171791,-0.08202536,272,-1030,60
2496.023,1.378906,-10.20888,0.5889736,4.616021,0.0777643,0.1182444,-0.09693906,262,-991,-33
2496.027,1.382812,-10.01255,0.6943185,4.611232,0.05965481,0.112918,-0.112918,274,-974,21
2496.031,1.386719,-9.921572,0.7565677,4.596867,0.0479369,0.1022654,-0.1299623,297,-1045,-3
2496.035,1.390625,-9.701305,0.8571242,4.592079,0.03089267,0.09267801,-0.1533981,289,-1040,49
2496.039,1.394531,-9.457097,0.8762778,4.663905,0.01065264,0.08948221,-0.1715076,266,-940,57
2496.043,1.398438,-9.241618,0.914585,4.855441,-0.004261058,0.09267801,-0.1885518,253,-1019,5
2496.047,1.402344,-9.102755,0.9672575,4.884171,-0.01278317,0.09267801,-0.2024002,308,-1001,-38
2496.051,1.40625,-8.829816,1.015142,5.109226,-0.02237055,0.08309063,-0.2173139,279,-1025,31
2496.055,1.410156,-8.628703,1.063026,5.21936,-0.03515373,0.06711166,-0.2300971,236,-1002,46
2496.059,1.414062,-8.355764,1.13964,5.343858,-0.04474111,0.06178534,-0.237554,228,-969,25
2496.062,1.417969,-8.044518,1.106121,5.382165,-0.05326322,0.06178534,-0.2471413,291,-972,-14
2496.066,1.421875,-7.785944,1.101333,5.45878,-0.06072007,0.05539375,-0.2535329,291,-1017,-29
2496.07,1.425781,-7.393295,1.11091,5.530606,-0.06924219,0.03834952,-0.2641856,278,-1030,19
2496.074,1.429688,-7.149086,1.029507,5.535394,-0.07350325,0.0298274,-0.2609898,247,-985,49
2496.078,1.433594,-6.833052,0.9576807,5.554548,-0.0809601,0.0181095,-0.2599245,253,-1033,3
2496.082,1.4375,-6.612785,0.7757213,5.635951,-0.08522115,0.00958738,-0.2545982,264,-980,11
2496.086,1.441406,-6.301539,0.5554548,5.592855,-0.09374327,-0.005326322,-0.237554,313,-1066,30
2496.09,1.445312,-6.042965,0.4022259,5.57849,-0.1001349,-0.01171791,-0.2269013,215,-1014,55
2496.094,1.449219,-5.865794,0.2442086,5.573701,-0.1065264,-0.01278317,-0.2130529,222,-1030,64
2496.098,1.453125,-5.722142,0.1915361,5.511452,-0.1171791,-0.002130529,-0.1981392,221,-980,-7
2496.102,1.457031,-5.588067,0.1197101,5.439626,-0.128897,0.01171791,-0.1768339,270,-1059,-25
2496.105,1.460938,-5.521029,0.1292869,5.410896,-0.1320928,0.01917476,-0.1640507,290,-1042,15
2496.109,1.464844,-5.415684,0.1628057,5.315128,-0.1310275,0.02556635,-0.1544633,216,-1075,28
2496.113,1.46875,-5.521029,0.1292869,5.209783,-0.1278317,0.04261058,-0.1406149,254,-975,2
2496.117,1.472656,-5.592855,0.1819593,5.181052,-0.1267665,0.07669904,-0.1246359,272,-1024,-19
2496.121,1.476562,-5.722142,0.1819593,5.085284,-0.1257012,0.0958738,-0.1033307,296,-1023,-11
2496.125,1.480469,-5.894524,0.1292869,5.056554,-0.1225054,0.1022654,-0.08415589,267,-1020,40
2496.129,1.484375,-6.023811,0.1244985,4.999093,-0.1139833,0.1107875,-0.06817692,255,-981,63
2496.133,1.488281,-6.325481,0.1675941,4.946421,-0.108657,0.1246359,-0.04580637,240,-993,-19
2496.137,1.492188,-6.473921,0.1436521,4.865018,-0.1097222,0.1427454,-0.02450108,263,-1023,9
2496.141,1.496094,-6.722918,0.1580173,4.836287,-0.1054612,0.1523328,-0.01278317,313,-1041,43
2496.145,1.5,-6.900089,0.1436521,4.687847,-0.1075917,0.1544633,0.002130529,231,-1067,62
2496.148,1.503906,-7.364564,0.08140286,4.64954,-0.1033307,0.1533981,0.01278317,253,-1010,-25
2496.152,1.507812,-7.575254,0.1005565,4.639963,-0.1065264,0.1512675,0.03195793,269,-986,-15
2496.156,1.511719,-7.900865,0.1101333,4.58729,-0.112918,0.1597897,0.04154531,271,-1030,-6
2496.16,1.515625,-8.240842,0.1484405,4.55856,-0.1182444,0.1619202,0.04580637,303,-1068,39
2496.164,1.519531,-8.523358,0.1436521,4.501099,-0.1161138,0.1608549,0.04261058,263,-987,14
2496.168,1.523438,-8.949526,0.1436521,4.553772,-0.1203749,0.149137,0.03195793,246,-985,1
2496.172,1.527344,-9.23683,0.1580173,4.481946,-0.1257012,0.1416802,0.02237055,308,-963,11
2496.176,1.53125,-9.44752,0.1053449,4.46758,-0.1320928,0.1416802,0.01171791,262,-1037,32
2496.18,1.535156,-9.658209,0.07182605,4.486734,-0.1406149,0.1320928,-0.00958738,215,-1039,60
2496.184,1.539062,-9.911995,0.02394202,4.434061,-0.1470065,0.1065264,-0.04261058,266,-976,41
2496.188,1.542969,-10.01734,-0.04788403,4.429273,-0.1459412,0.08522115,-0.06817692,271,-1005,-4
2496.191,1.546875,-10.13705,-0.1388637,4.410119,-0.1459412,0.06817692,-0.1001349,303,-1059,-6
2496.195,1.550781,-10.20409,-0.1723825,4.424485,-0.1480718,0.05752428,-0.1267665,266,-1040,46
2496.199,1.554688,-10.1993,-0.3160346,4.357447,-0.1523328,0.03621899,-0.1725728,258,-986,52
2496.203,1.558594,-10.26634,-0.3591302,4.343082,-0.149137,0.01597897,-0.205596,227,-1017,-2
2496.207,1.5625,-10.21366,-0.4357447,4.304775,-0.1406149,-0.008522115,-0.2407498,305,-1014,22
2496.211,1.566406,-10.18493,-0.4453215,4.31914,-0.1331581,-0.02237055,-0.2716424,285,-1060,10
2496.215,1.570312,-10.06522,-0.5746084,4.22816,-0.1299623,-0.03515373,-0.314253,252,-1038,46
2496.219,1.574219,-9.983821,-0.6512229,4.218583,-0.1257012,-0.04900216,-0.3398194,234,-994,62
2496.223,1.578125,-9.92636,-0.7374141,4.180276,-0.1161138,-0.06817692,-0.3675162,249,-1001,12
2496.227,1.582031,-9.758766,-0.7613561,4.113238,-0.1012001,-0.08309063,-0.3920173,331,-1030,46
2496.23,1.585938,-9.562441,-0.8523358,4.070143,-0.08841695,-0.09693906,-0.4239752,325,-1037,54
2496.234,1.589844,-9.414001,-0.8762778,4.046201,-0.08415589,-0.1043959,-0.4452805,230,-1069,41
2496.238,1.59375,-9.313444,-0.914585,3.950433,-0.07563377,-0.1075917,-0.4676511,230,-994,31
2496.242,1.597656,-9.169792,-0.8954314,3.825934,-0.06072007,-0.1075917,-0.4878911,288,-1028,-39
2496.246,1.601562,-8.983045,-0.8714894,3.77805,-0.04474111,-0.1097222,-0.5081311,280,-1069,-3
2496.25,1.605469,-8.892065,-0.842759,3.696647,-0.0330232,-0.09693906,-0.5347627,247,-1070,29
2496.254,1.609375,-8.805874,-0.8475474,3.682282,-0.02663161,-0.08415589,-0.5528722,222,-1004,33
2496.258,1.613281,-8.69574,-0.7517793,3.600879,-0.01597897,-0.07456851,-0.5699165,254,-998,-20
2496.262,1.617188,-8.590396,-0.7805097,3.495534,-0.005326322,-0.07243798,-0.5858954,276,-1032,6
2496.266,1.621094,-8.475474,-0.6991069,3.466804,0.005326322,-0.0628506,-0.6114618,305,-981,32
2496.27,1.625,-8.480262,-0.6703765,3.394978,0.01171791,-0.05326322,-0.6221144,288,-1041,100
2496.273,1.628906,-8.394071,-0.5793968,3.351882,0.02024002,-0.04367584,-0.6380934,211,-996,-22
2496.277,1.632812,-8.360552,-0.5171476,3.29921,0.03195793,-0.03089267,-0.6519418,328,-1024,-9
2496.281,1.636719,-8.303091,-0.4932055,3.318364,0.03834952,-0.01704423,-0.6625945,334,-1018,12
2496.285,1.640625,-8.327033,-0.3974375,3.189077,0.04261058,-0.01278317,-0.6732471,316,-1040,33
2496.289,1.644531,-8.33661,-0.4453215,3.213019,0.04580637,-0.008522115,-0.6775082,274,-995,52
2496.293,1.648438,-8.365341,-0.3830723,3.165135,0.05432849,-0.003195793,-0.6838998,244,-1023,36
2496.297,1.652344,-8.33661,-0.3256114,3.150769,0.05432849,0.007456851,-0.6860303,323,-981,6
2496.301,1.65625,-8.33661,-0.2681506,3.165135,0.05645902,0.01171791,-0.6838998,315,-1030,50
2496.305,1.660156,-8.331822,-0.2777274,3.098097,0.05752428,0.01278317,-0.6817692,237,-1006,52
2496.309,1.664062,-8.355764,-0.272939,3.126827,0.06391587,0.01065264,-0.6753777,253,-944,24
2496.312,1.667969,-8.418013,-0.248997,3.141193,0.07030745,0.01171791,-0.6668555,268,-1022,-8
2496.316,1.671875,-8.379706,-0.2442086,3.150769,0.06817692,0.01917476,-0.6562029,304,-1071,6
2496.32,1.675781,-8.465897,-0.3016694,3.098097,0.06391587,0.02343582,-0.644485,356,-1039,3
2496.324,1.679688,-8.523358,-0.2873042,3.141193,0.06711166,0.01704423,-0.6348976,260,-1000,72
2496.328,1.683594,-8.542512,-0.3160346,3.08852,0.07456851,0.01278317,-0.6221144,243,-972,9
2496.332,1.6875,-8.571242,-0.3591302,3.078943,0.0777643,0.0149137,-0.608266,304,-1028,1
2496.336,1.691406,-8.595184,-0.3543418,3.045425,0.0777643,0.02130529,-0.5954828,284,-1046,50
2496.34,1.695312,-8.561665,-0.4022259,3.122039,0.07456851,0.01917476,-0.5784386,269,-1039,53
2496.344,1.699219,-8.614338,-0.4501099,2.987964,0.07989483,0.008522115,-0.5688512,233,-1003,57
2496.348,1.703125,-8.595184,-0.4788403,2.99754,0.09374327,-0.001065264,-0.5496764,280,-1016,40
2496.352,1.707031,-8.580819,-0.5027823,2.949656,0.09693906,-0.005326322,-0.5326322,304,-1028,14
2496.355,1.710938,-8.599972,-0.5985504,2.868254,0.09906959,-0.006391587,-0.5145227,304,-1049,37
2496.359,1.714844,-8.537723,-0.6129156,2.887407,0.1012001,-0.008522115,-0.4964132,277,-1000,38
2496.363,1.71875,-8.561665,-0.6512229,2.87783,0.108657,-0.02024002,-0.4772385,270,-1030,-12
2496.367,1.722656,-8.590396,-0.6607997,2.87783,0.1171791,-0.02876214,-0.4580637,310,-977,21
2496.371,1.726562,-8.57603,-0.6799533,2.863465,0.1267665,-0.0330232,-0.4388889,320,-1030,-17
2496.375,1.730469,-8.585607,-0.7038953,2.825158,0.1278317,-0.03941478,-0.4154531,213,-1017,54
2496.379,1.734375,-8.556877,-0.7278373,2.777274,0.1342233,-0.04687164,-0.3930826,254,-978,40
2496.383,1.738281,-8.571242,-0.6847417,2.777274,0.1406149,-0.05006743,-0.3728426,242,-1017,5
2496.387,1.742188,-8.528146,-0.6895301,2.75812,0.1480718,-0.06178534,-0.3557983,288,-1042,21
2496.391,1.746094,-8.528146,-0.7086837,2.777274,0.1544633,-0.06498113,-0.3355583,275,-1012,50
2496.395,1.75,-8.561665,-0.6799533,2.681506,0.1576591,-0.06817692,-0.3121225,252,-1033,60
2496.398,1.753906,-8.556877,-0.6847417,2.647987,0.1565939,-0.06924219,-0.2950782,279,-1007,-15
2496.402,1.757812,-8.561665,-0.6751649,2.633622,0.1587244,-0.07030745,-0.278034,283,-1000,10
2496.406,1.761719,-8.566454,-0.7086837,2.571373,0.1608549,-0.06924219,-0.2620551,312,-1082,13
2496.41,1.765625,-8.599972,-0.6224924,2.561796,0.1619202,-0.06072007,-0.2450108,326,-1026,18
2496.414,1.769531,-8.571242,-0.6368576,2.480393,0.1597897,-0.05432849,-0.2311624,266,-1003,21
2496.418,1.773438,-8.57603,-0.5602432,2.466028,0.1640507,-0.05006743,-0.2205097,215,-1006,29
2496.422,1.777344,-8.599972,-0.5602432,2.494758,0.169377,-0.04261058,-0.2119876,265,-988,11
2496.426,1.78125,-8.614338,-0.5267244,2.346318,0.1683118,-0.02556635,-0.2045308,300,-1022,61
2496.43,1.785156,-8.528146,-0.4501099,2.240973,0.1672465,-0.01278317,-0.1992044,254,-1013,34
2496.434,1.789062,-8.542512,-0.4788403,2.226608,0.1683118,0.006391587,-0.1960087,242,-987,48
2496.438,1.792969,-8.552088,-0.5363012,2.164358,0.169377,0.01704423,-0.1970739,271,-983,24
2496.441,1.796875,-8.446743,-0.6081272,2.154781,0.1704423,0.02556635,-0.1949434,292,-1033,-6
2496.445,1.800781,-8.422801,-0.7230489,2.06859,0.1757686,0.04261058,-0.1992044,302,-1052,58
2496.449,1.804688,-8.331822,-0.8858546,1.963245,0.1778992,0.06072007,-0.201335,252,-979,27
2496.453,1.808594,-8.274361,-0.9385271,1.987187,0.1800297,0.0777643,-0.2045308,219,-1039,2
2496.457,1.8125,-8.288726,-0.9768343,1.996764,0.1789644,0.09054748,-0.2024002,265,-965,36
2496.461,1.816406,-8.274361,-1.106121,1.996764,0.181095,0.1033307,-0.2024002,264,-1039,36
2496.465,1.820312,-8.288726,-1.206678,2.063802,0.185356,0.1107875,-0.1992044,260,-1051,41
2496.469,1.824219,-8.322245,-1.240196,2.063802,0.1874865,0.1139833,-0.2002697,287,-994,30
2496.473,1.828125,-8.398859,-1.25935,2.106897,0.1906823,0.1171791,-0.1992044,269,-962,13
2496.477,1.832031,-8.508993,-1.426944,2.140416,0.1938781,0.1182444,-0.1960087,319,-1045,-14
2496.48,1.835938,-8.566454,-1.455675,2.303222,0.1938781,0.1203749,-0.1938781,310,-1011,42
2496.484,1.839844,-8.623914,-1.493982,2.389413,0.1960087,0.1246359,-0.1885518,220,-1027,3
2496.488,1.84375,-8.66701,-1.484405,2.537854,0.1949434,0.1246359,-0.1778992,236,-1051,9
2496.492,1.847656,-8.772355,-1.455675,2.576161,0.1938781,0.1299623,-0.1629855,324,-1004,11
2496.496,1.851562,-8.853758,-1.484405,2.614468,0.1960087,0.1299623,-0.1512675,298,-1038,-6
2496.5,1.855469,-8.949526,-1.503559,2.676717,0.201335,0.1257012,-0.1395496,257,-1041,41
2496.504,1.859375,-9.064447,-1.551443,2.796428,0.2034655,0.1150486,-0.1310275,235,-999,57
2496.508,1.863281,-9.097966,-1.58975,2.983175,0.2098571,0.1171791,-0.1203749,238,-1021,8
2496.512,1.867188,-9.232042,-1.594538,3.098097,0.2194445,0.1235707,-0.1150486,307,-1043,22
2496.516,1.871094,-9.399636,-1.666364,3.117251,0.2258361,0.1310275,-0.1107875,288,-1053,50
2496.52,1.875,-9.557653,-1.647211,3.213019,0.2279666,0.1374191,-0.1097222,252,-1035,19
2496.523,1.878906,-9.643844,-1.699883,3.241749,0.2300971,0.149137,-0.108657,287,-1021,-14
2496.527,1.882812,-9.758766,-1.728614,3.270479,0.2300971,0.1576591,-0.1171791,270,-973,5
2496.531,1.886719,-9.89763,-1.80044,3.366248,0.2258361,0.1629855,-0.1214401,294,-1034,-3
2496.535,1.890625,-10.10353,-1.776498,3.356671,0.221575,0.165116,-0.1320928,294,-1035,47
2496.539,1.894531,-10.29507,-1.833958,3.457227,0.2130529,0.1661813,-0.1427454,242,-1012,19
2496.543,1.898438,-10.50576,-1.810016,3.5099,0.2024002,0.1800297,-0.1587244,279,-994,-8
2496.547,1.902344,-10.64462,-1.771709,3.404555,0.1917476,0.1874865,-0.1715076,292,-1005,-32
2496.551,1.90625,-10.85052,-1.70946,3.466804,0.1757686,0.1832255,-0.1832255,289,-1041,45
2496.555,1.910156,-11.12346,-1.604115,3.433285,0.1629855,0.1768339,-0.1981392,250,-1054,45
2496.559,1.914062,-11.35809,-1.489193,3.303998,0.1352886,0.1565939,-0.2109224,260,-1005,54
2496.562,1.917969,-11.54484,-1.331176,3.222595,0.1214401,0.1342233,-0.2226403,278,-1026,3
2496.566,1.921875,-11.72201,-1.240196,3.055001,0.1107875,0.1065264,-0.237554,312,-1071,-1
2496.57,1.925781,-11.90397,-1.249773,2.954445,0.1012001,0.0777643,-0.2492719,298,-1011,44
2496.574,1.929688,-12.07156,-1.302446,2.734178,0.09906959,0.0479369,-0.2652508,274,-984,71
2496.578,1.933594,-12.15297,-1.326388,2.576161,0.1012001,0.03621899,-0.2769688,238,-995,29
2496.582,1.9375,-12.24395,-1.422156,2.480393,0.1065264,0.02343582,-0.2897519,297,-1021,-37
2496.586,1.941406,-12.31098,-1.541866,2.346318,0.1150486,0.00958738,-0.3025351,325,-1037,69
2496.59,1.945312,-12.47858,-1.733402,2.087744,0.1331581,-0.01278317,-0.314253,255,-1060,62
2496.594,1.949219,-12.44506,-1.877054,2.202666,0.149137,-0.02663161,-0.3227751,260,-991,66
2496.598,1.953125,-12.40675,-1.968034,2.27928,0.1661813,-0.02769688,-0.330232,239,-1012,-1
2496.602,1.957031,-12.25831,-2.140416,2.60968,0.1800297,-0.008522115,-0.3323625,302,-1066,10
2496.605,1.960938,-12.14818,-2.231396,3.055001,0.1938781,0.03515373,-0.3355583,305,-1028,58
2496.609,1.964844,-12.10987,-2.193089,3.41892,0.1981392,0.0809601,-0.3355583,241,-1054,56
2496.613,1.96875,-12.15776,-2.025495,3.883395,0.1981392,0.1427454,-0.3376888,223,-1004,24
2496.617,1.972656,-12.21522,-1.80044,4.07972,0.1842907,0.2098571,-0.3430151,298,-990,1
2496.621,1.976562,-12.3445,-1.474828,4.223372,0.1523328,0.278034,-0.3526025,316,-1043,33
2496.625,1.980469,-12.31577,-1.11091,4.247314,0.1203749,0.3121225,-0.3675162,193,-1058,69
2496.629,1.984375,-12.2631,-0.7182605,4.242525,0.09374327,0.3430151,-0.3813647,224,-1017,42
2496.633,1.988281,-12.14818,-0.3351882,4.410119,0.07350325,0.3653857,-0.3984089,241,-989,57
2496.637,1.992188,-12.06199,0.09576807,4.683058,0.04580637,0.3749731,-0.4197142,286,-1016,3
2496.641,1.996094,-11.96143,0.5363012,5.166687,-0.01384844,0.3781689,-0.4538026,307,-1067,24
2496.645,2,-12.13381,0.8283938,5.33907,-0.08841695,0.3600594,-0.4644553,241,-1002,31
2496.648,2.003906,-12.30141,0.9768343,5.506664,-0.1715076,0.3312972,-0.4878911,219,-1011,12
2496.652,2.007812,-12.52646,1.000776,5.3678,-0.2545982,0.2918825,-0.5262406,249,-995,-29
2496.656,2.011719,-12.70842,0.8331822,5.602432,-0.3163835,0.2354234,-0.5763081,291,-1034,-12
2496.66,2.015625,-12.65575,0.4692635,5.549759,-0.3174488,0.1896171,-0.5954828,327,-1038,47
2496.664,2.019531,-12.33493,0.1101333,5.506664,-0.2961435,0.1555286,-0.5933523,273,-1002,53
2496.668,2.023438,-11.95185,-0.3639187,5.516241,-0.2599245,0.1331581,-0.5741775,227,-1001,32
2496.672,2.027344,-11.32936,-0.8810662,5.650316,-0.2311624,0.1203749,-0.5336975,328,-1026,26
2496.676,2.03125,-10.84095,-1.13964,5.837064,-0.2471413,0.1065264,-0.499609,323,-1081,41
2496.68,2.035156,-10.54885,-1.206678,5.990293,-0.2673814,0.09161274,-0.4644553,256,-1032,41
2496.684,2.039062,-10.20888,-1.278504,5.990293,-0.2641856,0.0628506,-0.44315,269,-1012,-28
2496.688,2.042969,-9.773131,-1.37906,5.822698,-0.2002697,0.01704423,-0.4335626,278,-1003,3
2496.691,2.046875,-9.270349,-1.699883,5.717354,-0.1150486,-0.007456851,-0.4250405,307,-1099,48
2496.695,2.050781,-8.580819,-1.953669,5.861006,-0.04687164,-0.02237055,-0.4037352,292,-1076,43
2496.699,2.054688,-7.833828,-2.154781,5.928043,-0.01278317,-0.03515373,-0.3717773,248,-1017,35
2496.703,2.058594,-7.029376,-2.480393,5.932832,0.008522115,-0.05539375,-0.3355583,266,-1021,19
2496.707,2.0625,-6.584055,-2.509123,6.23929,0.0479369,-0.06817692,-0.3078614,273,-1007,7
2496.711,2.066406,-6.320692,-2.700659,6.186617,0.1065264,-0.08628642,-0.2833603,326,-1057,95
2496.715,2.070312,-6.162675,-2.801216,6.105214,0.1736381,-0.1065264,-0.2705772,270,-1061,46
2496.719,2.074219,-6.0286,-2.791639,6.244078,0.2482066,-0.1427454,-0.257794,277,-1018,67
2496.723,2.078125,-5.999869,-2.509123,6.100426,0.2897519,-0.1619202,-0.2482066,240,-1047,68
2496.727,2.082031,-6.086061,-2.346318,6.009446,0.3057309,-0.1672465,-0.2428803,294,-1032,9
2496.73,2.085938,-6.196194,-2.078167,5.837064,0.3462109,-0.1704423,-0.241815,287,-1045,50
2496.734,2.089844,-6.411672,-1.853112,5.870582,0.3834952,-0.1778992,-0.2545982,233,-1024,44
2496.738,2.09375,-6.607997,-1.493982,5.84664,0.4250405,-0.1842907,-0.2727077,260,-997,29
2496.742,2.097656,-6.71813,-1.326388,5.841852,0.44315,-0.1864213,-0.2854909,269,-1005,32
2496.746,2.101562,-6.914454,-1.144428,5.841852,0.4623248,-0.1768339,-0.2950782,336,-1015,29
2496.75,2.105469,-7.082049,-1.029507,5.822698,0.4697816,-0.169377,-0.3014698,235,-1079,82
2496.754,2.109375,-7.244854,-0.8475474,5.731719,0.4708469,-0.1544633,-0.3004046,299,-1014,38
2496.758,2.113281,-7.469909,-0.6368576,5.683835,0.4644553,-0.1427454,-0.2950782,227,-1022,25
2496.762,2.117188,-7.656657,-0.3399766,5.592855,0.4548679,-0.1352886,-0.2865561,310,-1014,0
2496.766,2.121094,-7.805097,-0.04788403,5.449203,0.4367584,-0.1246359,-0.2705772,296,-1044,44
2496.77,2.125,-8.010999,0.4309563,5.24809,0.3984089,-0.1107875,-0.2535329,244,-1046,24
2496.773,2.128906,-8.145074,0.6655881,5.133168,0.3749731,-0.1033307,-0.2247708,268,-1007,6
2496.777,2.132812,-8.279149,0.9481039,5.080496,0.3398194,-0.09267801,-0.1928129,318,-998,-24
2496.781,2.136719,-8.45632,1.106121,4.865018,0.298274,-0.08202536,-0.1587244,312,-1034,37
2496.785,2.140625,-8.676587,1.235408,4.721366,0.2439456,-0.07030745,-0.1182444,291,-1077,21
2496.789,2.144531,-8.853758,1.321599,4.687847,0.2002697,-0.0660464,-0.08841695,244,-1002,65
2496.793,2.148438,-9.011775,1.197101,4.654328,0.1587244,-0.05113269,-0.05219796,227,-1018,17
2496.797,2.152344,-9.279926,1.11091,4.539406,0.1150486,-0.03941478,-0.01278317,264,-1054,6
2496.801,2.15625,-9.605537,0.9911995,4.539406,0.06391587,-0.02876214,0.04580637,306,-1054,53
2496.805,2.160156,-9.768343,0.7757213,4.577714,0.02876214,-0.02450108,0.0958738,244,-1068,48
2496.809,2.164062,-9.969456,0.56982,4.539406,-0.003195793,-0.02769688,0.1480718,261,-993,14
2496.812,2.167969,-10.05565,0.3495534,4.458003,-0.02556635,-0.0330232,0.2034655,285,-984,5
2496.816,2.171875,-10.15142,0,4.34787,-0.05219796,-0.03621899,0.2822951,289,-1036,24
2496.82,2.175781,-10.10353,-0.2920926,4.338293,-0.07030745,-0.03515373,0.3387541,302,-1043,47
2496.824,2.179688,-9.988609,-0.5889736,4.261679,-0.08522115,-0.03941478,0.3941478,232,-1053,58
2496.828,2.183594,-9.873688,-0.8331822,4.161122,-0.09267801,-0.04367584,0.4516721,260,-1035,37
2496.832,2.1875,-9.600749,-1.086968,4.127604,-0.09374327,-0.05645902,0.5006743,309,-1017,8
2496.836,2.191406,-9.442731,-1.393425,4.003105,-0.08415589,-0.06498113,0.5635249,293,-1052,64
2496.84,2.195312,-9.241618,-1.61848,3.921702,-0.06924219,-0.07137272,0.6050702,270,-1059,78
2496.844,2.199219,-8.983045,-1.80044,3.806781,-0.05858954,-0.07669904,0.6423545,291,-1003,74
2496.848,2.203125,-8.75799,-1.867477,3.768473,-0.04687164,-0.0809601,0.6775082,266,-1008,23
2496.852,2.207031,-8.470685,-1.953669,3.682282,-0.03408846,-0.07882957,0.7147924,253,-1067,23
2496.855,2.210938,-8.245631,-1.963245,3.615245,-0.02024002,-0.07989483,0.7350325,285,-1061,70
2496.859,2.214844,-8.082825,-1.82917,3.481169,-0.005326322,-0.0777643,0.7499462,251,-1011,57
2496.863,2.21875,-7.862558,-1.695095,3.375824,0.002130529,-0.07243798,0.7627293,268,-976,23
2496.867,2.222656,-7.73806,-1.460463,3.308787,0.006391587,-0.05539375,0.773382,293,-1003,20
2496.871,2.226562,-7.709329,-1.345541,3.232172,0.00958738,-0.04154531,0.7744472,282,-1044,59
2496.875,2.230469,-7.709329,-1.149217,3.189077,0.01065264,-0.0330232,0.7787083,282,-1040,38
2496.879,2.234375,-7.76679,-0.9624691,3.122039,0.0149137,-0.03408846,0.7787083,268,-1025,47
2496.883,2.238281,-7.848193,-0.7517793,3.040636,0.01597897,-0.03515373,0.7659251,218,-980,-15
2496.887,2.242188,-7.967903,-0.6895301,2.949656,0.007456851,-0.03408846,0.7595335,329,-1041,17
2496.891,2.246094,-8.020576,-0.56982,3.021482,0.005326322,-0.02876214,0.7510114,286,-1049,28
2496.895,2.25,-8.173804,-0.4979939,3.011906,0,-0.02876214,0.7339672,242,-1032,39
2496.898,2.253906,-8.269573,-0.4501099,3.002329,-0.008522115,-0.03515373,0.716923,253,-1008,-25
2496.902,2.257812,-8.370129,-0.3687071,2.973598,-0.01278317,-0.03941478,0.6988135,294,-1055,-16
2496.906,2.261719,-8.355764,-0.3303998,3.011906,-0.01704423,-0.0479369,0.6796387,284,-1071,26
2496.91,2.265625,-8.465897,-0.2873042,2.973598,-0.02237055,-0.05645902,0.6636597,271,-1048,36
2496.914,2.269531,-8.494627,-0.3016694,2.99754,-0.03621899,-0.0660464,0.6402239,261,-1021,63
2496.918,2.273438,-8.451532,-0.3256114,2.949656,-0.04367584,-0.07030745,0.6221144,243,-1010,-8
2496.922,2.277344,-8.403648,-0.4022259,2.983175,-0.0479369,-0.07882957,0.6008091,300,-1041,2
2496.926,2.28125,-8.350975,-0.3926491,2.925714,-0.05006743,-0.09054748,0.5795039,288,-1042,48
2496.93,2.285156,-8.279149,-0.4596867,2.916138,-0.05219796,-0.1054612,0.5592638,286,-997,34
2496.934,2.289062,-8.245631,-0.5410896,2.825158,-0.06072007,-0.1150486,0.5422196,263,-1010,44
2496.938,2.292969,-8.221689,-0.5793968,2.916138,-0.06498113,-0.1182444,0.5283712,280,-1031,-2
2496.941,2.296875,-8.130709,-0.6751649,2.868254,-0.07243798,-0.1257012,0.5166533,287,-1015,29
2496.945,2.300781,-8.09719,-0.7134721,2.858677,-0.07563377,-0.1320928,0.5006743,277,-1062,62
2496.949,2.304688,-7.996634,-0.7517793,2.801216,-0.08309063,-0.1342233,0.4889564,245,-1000,75
2496.953,2.308594,-8.015787,-0.7805097,2.801216,-0.08522115,-0.1363538,0.4804343,255,-988,7
2496.957,2.3125,-7.967903,-0.794875,2.782062,-0.08735168,-0.1352886,0.4751079,306,-1002,37
2496.961,2.316406,-7.900865,-0.8092402,2.710236,-0.08735168,-0.1342233,0.4719121,310,-1056,88
2496.965,2.320312,-7.8865,-0.7230489,2.657564,-0.08202536,-0.1352886,0.4655206,177,-1070,69
2496.969,2.324219,-7.862558,-0.7086837,2.75812,-0.07669904,-0.1363538,0.4601942,222,-983,51
2496.973,2.328125,-7.924807,-0.6655881,2.676717,-0.07030745,-0.1310275,0.4559332,252,-983,53
2496.977,2.332031,-7.920019,-0.6512229,2.695871,-0.0660464,-0.1257012,0.4506069,305,-1041,34
2496.98,2.335938,-7.987057,-0.6129156,2.738967,-0.06072007,-0.1193096,0.4399542,294,-1017,51
2496.984,2.339844,-8.121132,-0.5985504,2.719813,-0.05965481,-0.1203749,0.4346279,246,-1041,37
2496.988,2.34375,-8.240842,-0.5075708,2.748544,-0.05858954,-0.1203749,0.4250405,224,-996,-14
2496.992,2.347656,-8.283938,-0.5315128,2.75812,-0.05539375,-0.1193096,0.4143879,294,-1012,4
2496.996,2.351562,-8.360552,-0.5027823,2.691083,-0.05113269,-0.1203749,0.3962784,270,-1060,76
2497,2.355469,-8.42759,-0.4932055,2.724601,-0.04687164,-0.1161138,0.3802994,210,-1080,70
2497.004,2.359375,-8.451532,-0.3639187,2.782062,-0.04367584,-0.108657,0.3653857,231,-1008,82
2497.008,2.363281,-8.504204,-0.3303998,2.844312,-0.04261058,-0.1065264,0.3494067,268,-971,20
2497.012,2.367188,-8.633491,-0.2011129,2.8491,-0.0479369,-0.1022654,0.330232,288,-1052,-24
2497.016,2.371094,-8.734048,-0.1532289,2.810793,-0.05113269,-0.1022654,0.3153183,268,-1052,69
2497.02,2.375,-8.743624,-0.06224924,2.853888,-0.05752428,-0.1043959,0.2972088,232,-1039,51
2497.023,2.378906,-8.892065,-0.07661445,2.839523,-0.06498113,-0.1033307,0.2812298,239,-982,41
2497.027,2.382812,-8.930372,0.01915361,2.75812,-0.07243798,-0.1001349,0.2620551,276,-1013,18
2497.031,2.386719,-8.916007,0.07182605,2.671929,-0.08735168,-0.09054748,0.241815,288,-1038,-4
2497.035,2.390625,-8.949526,0.1244985,2.633622,-0.1012001,-0.08628642,0.2290319,268,-1048,51
2497.039,2.394531,-8.968679,0.2154781,2.485181,-0.1150486,-0.08415589,0.2194445,239,-991,32
2497.043,2.398438,-8.992621,0.2873042,2.442086,-0.128897,-0.07989483,0.2130529,207,-1007,4
2497.047,2.402344,-8.978256,0.3303998,2.365471,-0.1480718,-0.07243798,0.2034655,272,-1030,8
2497.051,2.40625,-8.968679,0.3064578,2.379836,-0.1608549,-0.07456851,0.1981392,291,-1065,87
2497.055,2.410156,-9.002198,0.3495534,2.260126,-0.1757686,-0.07350325,0.1949434,263,-1059,54
2497.059,2.414062,-9.040505,0.3351882,2.178724,-0.1896171,-0.06924219,0.1928129,202,-1028,-19
2497.062,2.417969,-8.963891,0.3639187,2.106897,-0.2087918,-0.06178534,0.1949434,297,-1014,17
2497.066,2.421875,-8.925584,0.3782839,2.006341,-0.2205097,-0.05326322,0.1938781,281,-1043,-14
2497.07,2.425781,-8.8777,0.320823,1.934515,-0.2332929,-0.04367584,0.1917476,313,-1055,74
2497.074,2.429688,-8.772355,0.2681506,1.924938,-0.2450108,-0.02237055,0.1949434,271,-989,63
2497.078,2.433594,-8.710106,0.2106897,1.853112,-0.2599245,0.01278317,0.1949434,232,-988,17
2497.082,2.4375,-8.686164,0.1197101,1.666364,-0.2684466,0.04474111,0.1970739,257,-975,20
2497.086,2.441406,-8.690952,0.2346318,1.671153,-0.2748382,0.07243798,0.2024002,291,-1051,48
2497.09,2.445312,-8.676587,0.1819593,1.757344,-0.2812298,0.08735168,0.205596,240,-1051,69
2497.094,2.449219,-8.652645,0.1675941,1.690306,-0.2790993,0.1001349,0.2087918,234,-994,29
2497.098,2.453125,-8.619126,0.2202666,1.690306,-0.2759035,0.1193096,0.2098571,217,-996,24
2497.102,2.457031,-8.643068,0.2202666,1.647211,-0.2663161,0.1310275,0.2130529,256,-1028,1
2497.105,2.460938,-8.66701,0.296881,1.742979,-0.2524677,0.1363538,0.2077266,298,-1023,70
2497.109,2.464844,-8.853758,0.3878607,1.8579,-0.237554,0.1342233,0.2077266,234,-1002,28
2497.113,2.46875,-9.011775,0.3591302,1.94888,-0.2258361,0.1267665,0.2034655,219,-999,24
2497.117,2.472656,-9.150639,0.4022259,2.140416,-0.2130529,0.1235707,0.201335,307,-985,24
2497.121,2.476562,-9.299079,0.3256114,2.288857,-0.2024002,0.1235707,0.1938781,270,-1056,75
2497.125,2.480469,-9.624691,0.2920926,2.389413,-0.1885518,0.1246359,0.1864213,259,-1051,58
2497.129,2.484375,-9.864111,0.2537854,2.48997,-0.1800297,0.1150486,0.1736381,255,-1025,64
2497.133,2.488281,-10.12268,0.2346318,2.595315,-0.1736381,0.1065264,0.165116,253,-973,38
2497.137,2.492188,-10.29986,0.296881,2.614468,-0.1725728,0.09374327,0.1576591,292,-1039,36
2497.141,2.496094,-10.48181,0.3303998,2.676717,-0.1704423,0.07882957,0.1523328,293,-1048,41
2497.145,2.5,-10.71166,0.4405331,2.767697,-0.1683118,0.06498113,0.1523328,233,-1086,35
2497.148,2.503906,-10.9846,0.5793968,2.806004,-0.1661813,0.06072007,0.1502023,207,-998,-8
2497.152,2.507812,-11.17134,0.6655881,2.8491,-0.1619202,0.05006743,0.1512675,295,-996,4
2497.156,2.511719,-11.41077,0.7805097,2.777274,-0.1576591,0.03621899,0.1565939,288,-1065,29
2497.16,2.515625,-11.65497,0.8571242,2.710236,-0.1459412,0.01917476,0.1661813,266,-1066,55
2497.164,2.519531,-11.82257,0.9289502,2.667141,-0.1395496,0.004261058,0.1768339,259,-1014,67
2497.168,2.523438,-11.98059,0.9289502,2.614468,-0.1320928,-0.01065264,0.1885518,226,-1032,18
2497.172,2.527344,-12.07156,0.9959879,2.537854,-0.1214401,-0.03089267,0.2034655,275,-1053,11
2497.176,2.53125,-12.29183,1.000776,2.384625,-0.1150486,-0.05645902,0.2237055,255,-1041,69
2497.18,2.535156,-12.36366,0.9241618,2.293645,-0.1033307,-0.07563377,0.2428803,237,-1057,67
2497.184,2.539062,-12.33493,0.8092402,2.164358,-0.08948221,-0.09161274,0.2599245,274,-957,37
2497.188,2.542969,-12.27747,0.7374141,1.987187,-0.07350325,-0.1043959,0.2748382,266,-997,31
2497.191,2.546875,-12.26789,0.5889736,1.814805,-0.05006743,-0.1161138,0.2908172,296,-1042,31
2497.195,2.550781,-12.21522,0.6129156,1.742979,-0.04048005,-0.1139833,0.3036004,268,-1026,64
2497.199,2.554688,-12.12424,0.6703765,1.632846,-0.0330232,-0.108657,0.3206446,246,-980,65
2497.203,2.558594,-12.0572,0.7134721,1.503559,-0.03728426,-0.09054748,0.3387541,222,-1002,-4
2497.207,2.5625,-11.90876,0.7757213,1.594538,-0.04580637,-0.05432849,0.3579289,297,-987,31
2497.211,2.566406,-11.74595,0.8236054,1.786074,-0.06072007,-0.02663161,0.3728426,253,-1050,45
2497.215,2.570312,-11.6837,0.8571242,1.690306,-0.07669904,0.003195793,0.3845605,211,-1017,38
2497.219,2.574219,-11.5209,0.8331822,2.140416,-0.08735168,0.0181095,0.3941478,249,-984,23
2497.223,2.578125,-11.30542,0.8140286,2.75812,-0.0958738,0.02450108,0.4048005,270,-1019,22
2497.227,2.582031,-11.066,0.7278373,3.672705,-0.1001349,0.05113269,0.4111921,293,-1065,2
2497.23,2.585938,-10.74997,0.5363012,4.702212,-0.06924219,0.08841695,0.4197142,313,-1042,39
2497.234,2.589844,-10.59195,0.3160346,5.707777,-0.00958738,0.1512675,0.4367584,241,-989,59
2497.238,2.59375,-10.75954,0.01436521,5.837064,0.05965481,0.2098571,0.4601942,211,-1018,29
2497.242,2.597656,-11.02769,-0.3351882,5.928043,0.1299623,0.2279666,0.5038701,315,-985,21
2497.246,2.601562,-10.7356,-0.7422025,6.277597,0.1715076,0.2119876,0.5294364,298,-1070,43
2497.25,2.605469,-10.28549,-1.221043,6.545747,0.2194445,0.2311624,0.5422196,259,-1011,43
2497.254,2.609375,-9.80665,-1.537077,6.62715,0.2748382,0.3089267,0.5347627,200,-1015,70
2497.258,2.613281,-9.528923,-1.742979,6.703765,0.3547331,0.40267,0.515588,256,-1006,15
2497.262,2.617188,-9.548076,-1.900996,6.766014,0.4186489,0.4207795,0.5123922,287,-1043,-1
2497.266,2.621094,-9.725247,-2.030283,6.708553,0.4783037,0.42291,0.5091964,271,-1057,21
2497.27,2.625,-10.09395,-2.173935,6.885724,0.5187838,0.4133226,0.5049353,222,-1019,31
2497.273,2.628906,-10.51055,-2.403778,7.086837,0.5677859,0.3845605,0.5049353,202,-1004,-10
2497.277,2.632812,-10.75954,-2.413355,7.101202,0.5997439,0.3600594,0.4974785,321,-977,17
2497.281,2.636719,-10.95108,-2.322376,6.95755,0.6295713,0.3419499,0.4836301,241,-1038,32
2497.285,2.640625,-11.12825,-2.27928,6.823475,0.6508766,0.314253,0.4601942,307,-1042,56
2497.289,2.644531,-11.17134,-2.03986,6.80911,0.680704,0.2652508,0.4356932,204,-1014,72
2497.293,2.648438,-11.20008,-1.723825,6.847417,0.6828345,0.2173139,0.4143879,256,-1015,16
2497.297,2.652344,-11.05163,-1.345541,6.742072,0.6743124,0.1715076,0.4005394,240,-1029,10
2497.301,2.65625,-10.78827,-0.9193734,6.651092,0.660464,0.1352886,0.3898868,269,-1036,41
2497.305,2.660156,-10.27591,-0.545878,6.770802,0.6359629,0.09374327,0.366451,238,-1003,44
2497.309,2.664062,-9.892841,-0.1675941,6.732495,0.6231797,0.06711166,0.3494067,285,-1008,8
2497.312,2.667969,-9.361328,0.2537854,6.646304,0.5912218,0.04580637,0.3366236,285,-1006,15
2497.316,2.671875,-8.920795,0.5841852,6.521805,0.5603291,0.03195793,0.3174488,277,-1005,20
2497.32,2.675781,-8.2169,0.9241618,6.603208,0.5305017,0.01704423,0.2950782,286,-1039,54
2497.324,2.679688,-7.824251,1.278504,6.315904,0.4921522,0.01171791,0.2663161,232,-1028,63
2497.328,2.683594,-7.536947,1.532289,6.200982,0.46339,0.004261058,0.2514024,260,-993,52
2497.332,2.6875,-7.158663,1.632846,6.191405,0.4367584,-0.01278317,0.241815,280,-975,-19
2497.336,2.691406,-6.919243,1.594538,6.095637,0.4165184,-0.03515373,0.2322276,274,-1014,35
2497.34,2.695312,-6.722918,1.561019,5.951985,0.3920173,-0.04580637,0.2354234,239,-1013,24
2497.344,2.699219,-6.631939,1.388637,5.899313,0.3749731,-0.05432849,0.2428803,214,-971,63
2497.348,2.703125,-6.574478,1.254562,5.837064,0.3600594,-0.06391587,0.2567287,177,-1001,-12
2497.352,2.707031,-6.665457,1.058237,5.822698,0.3451457,-0.06817692,0.2716424,284,-1025,51
2497.355,2.710938,-6.842628,0.7805097,5.770026,0.3249057,-0.0660464,0.2897519,279,-1017,20
2497.359,2.714844,-7.105991,0.6129156,5.856217,0.3110572,-0.0660464,0.3046656,251,-1012,63
2497.363,2.71875,-7.292738,0.5410896,5.865794,0.3046656,-0.07137272,0.3153183,247,-953,24
2497.367,2.722656,-7.513005,0.3543418,5.870582,0.2897519,-0.08202536,0.3217099,238,-1030,34
2497.371,2.726562,-7.723695,0.1915361,5.875371,0.2705772,-0.09161274,0.3131877,255,-1034,73
2497.375,2.730469,-7.867347,0.05267244,5.841852,0.2620551,-0.08948221,0.298274,249,-1023,43
2497.379,2.734375,-7.939173,-0.06224924,5.736507,0.2471413,-0.09267801,0.2769688,235,-1002,49
2497.383,2.738281,-8.135497,-0.1388637,5.659893,0.2428803,-0.09161274,0.241815,210,-1034,29
2497.387,2.742188,-8.317457,-0.3734955,5.497087,0.2300971,-0.08628642,0.1906823,304,-1055,33
2497.391,2.746094,-8.422801,-0.5171476,5.497087,0.2279666,-0.07563377,0.1459412,277,-1058,89
2497.395,2.75,-8.528146,-0.6272808,5.410896,0.2247708,-0.06178534,0.1022654,236,-1037,76
2497.398,2.753906,-8.681375,-0.6847417,5.353435,0.2237055,-0.05965481,0.05113269,213,-975,58
2497.402,2.757812,-8.829816,-0.8810662,5.224148,0.2290319,-0.05645902,-0.01917476,247,-1060,12
2497.406,2.761719,-9.016563,-0.9337386,5.109226,0.2386192,-0.05752428,-0.07243798,266,-1049,23
2497.41,2.765625,-9.232042,-1.034295,4.994305,0.2545982,-0.0628506,-0.1257012,226,-1032,79
2497.414,2.769531,-9.390059,-1.043872,5.003881,0.2790993,-0.06072007,-0.1864213,190,-1008,27
2497.418,2.773438,-9.696517,-0.9911995,4.79798,0.2993393,-0.0479369,-0.2396845,228,-995,32
2497.422,2.777344,-9.873688,-0.9002198,4.721366,0.3174488,-0.04900216,-0.3067962,269,-1058,34
2497.426,2.78125,-9.979033,-0.7613561,4.625598,0.3334278,-0.05432849,-0.3515373,268,-1044,77
2497.43,2.785156,-10.10353,-0.5841852,4.505888,0.3472762,-0.0628506,-0.3930826,242,-1054,32
2497.434,2.789062,-10.1562,-0.3734955,4.405331,0.3600594,-0.0777643,-0.4324974,237,-999,49
2497.438,2.792969,-10.08438,-0.08619126,4.194641,0.3696468,-0.0958738,-0.4708469,303,-986,-4
2497.441,2.796875,-9.945514,0.1244985,4.074931,0.3749731,-0.1043959,-0.4985438,245,-1023,-36
2497.445,2.800781,-9.816227,0.296881,4.065354,0.3728426,-0.1150486,-0.515588,262,-1026,65
2497.449,2.804688,-9.591172,0.4979939,3.950433,0.3675162,-0.1235707,-0.5305017,235,-979,63
2497.453,2.808594,-9.308656,0.7900865,3.797204,0.3568636,-0.1320928,-0.5443501,210,-997,21
2497.457,2.8125,-9.054871,1.000776,3.720589,0.3408846,-0.1512675,-0.5528722,265,-989,19
2497.461,2.816406,-8.801085,1.16837,3.65834,0.3259709,-0.1715076,-0.5581986,292,-1034,73
2497.465,2.820312,-8.614338,1.297657,3.56736,0.3057309,-0.1885518,-0.5624596,222,-1092,71
2497.469,2.824219,-8.350975,1.35033,3.356671,0.278034,-0.1981392,-0.572047,231,-1009,30
2497.473,2.828125,-8.135497,1.364695,3.452439,0.2588593,-0.1949434,-0.5763081,263,-974,17
2497.477,2.832031,-7.905654,1.35033,3.39019,0.2354234,-0.1874865,-0.5784386,295,-1060,-10
2497.48,2.835938,-7.718906,1.264138,3.361459,0.2183792,-0.1821602,-0.5784386,237,-1040,16
2497.484,2.839844,-7.575254,1.11091,3.351882,0.1949434,-0.181095,-0.5826996,224,-991,82
2497.488,2.84375,-7.465121,0.9911995,3.318364,0.185356,-0.185356,-0.5858954,224,-987,21
2497.492,2.847656,-7.43639,0.7661445,3.236961,0.1800297,-0.1789644,-0.5933523,275,-1002,9
2497.496,2.851562,-7.37893,0.6129156,3.236961,0.1715076,-0.1672465,-0.5976133,261,-1059,77
2497.5,2.855469,-7.350199,0.3687071,3.227384,0.1640507,-0.1512675,-0.6040049,228,-1038,87
2497.504,2.859375,-7.398083,0.1915361,3.141193,0.1629855,-0.1406149,-0.608266,267,-1015,91
2497.508,2.863281,-7.484274,0.04788403,3.136404,0.1587244,-0.1342233,-0.6103965,220,-1051,21
2497.512,2.867188,-7.584831,-0.09576807,3.098097,0.1533981,-0.1352886,-0.6093313,261,-1022,14
2497.516,2.871094,-7.651869,-0.248997,2.992752,0.1533981,-0.1470065,-0.6135923,250,-1020,74
2497.52,2.875,-7.671022,-0.3399766,3.026271,0.1512675,-0.1576591,-0.6125271,226,-1073,49
2497.523,2.878906,-7.694964,-0.3734955,2.935291,0.1565939,-0.1597897,-0.6135923,248,-977,60
2497.527,2.882812,-7.829039,-0.3830723,2.873042,0.1576591,-0.1544633,-0.6114618,258,-999,11
2497.531,2.886719,-7.862558,-0.4022259,2.896984,0.1587244,-0.1480718,-0.608266,301,-1046,84
2497.535,2.890625,-7.843405,-0.3830723,2.791639,0.1597897,-0.1342233,-0.6018744,196,-1055,43
2497.539,2.894531,-7.915231,-0.3687071,2.839523,0.1597897,-0.1267665,-0.5997439,265,-979,89
2497.543,2.898438,-7.934384,-0.3016694,2.734178,0.1576591,-0.1246359,-0.5933523,239,-983,24
2497.547,2.902344,-7.905654,-0.272939,2.652775,0.1544633,-0.1193096,-0.588026,283,-1043,-24
2497.551,2.90625,-7.85777,-0.1628057,2.691083,0.1502023,-0.1150486,-0.5795039,309,-1044,62
2497.555,2.910156,-7.876923,-0.05746084,2.667141,0.1470065,-0.1065264,-0.5731123,239,-1081,69
2497.559,2.914062,-7.891289,-0.06224924,2.624045,0.1427454,-0.09693906,-0.5635249,237,-982,33
2497.562,2.917969,-7.896077,0.06703765,2.580949,0.1395496,-0.08628642,-0.5528722,314,-996,32
2497.566,2.921875,-7.900865,0.1197101,2.528277,0.128897,-0.0777643,-0.5400891,290,-1035,1
2497.57,2.925781,-7.920019,0.1580173,2.547431,0.1182444,-0.07456851,-0.5305017,309,-1020,56
2497.574,2.929688,-8.030152,0.1915361,2.5187,0.1097222,-0.07137272,-0.5187838,245,-1003,59
2497.578,2.933594,-8.015787,0.1867477,2.552219,0.1001349,-0.0660464,-0.5070659,221,-966,33
2497.582,2.9375,-8.078036,0.2920926,2.499547,0.09161274,-0.05965481,-0.4846953,287,-1003,16
2497.586,2.941406,-8.149862,0.3160346,2.523489,0.08309063,-0.06391587,-0.4708469,240,-1030,98
2497.59,2.945312,-8.259996,0.3543418,2.509123,0.07669904,-0.06924219,-0.4527374,238,-1027,62
2497.594,2.949219,-8.269573,0.4740519,2.557007,0.07137272,-0.07137272,-0.4335626,228,-984,12
2497.598,2.953125,-8.408436,0.4932055,2.604891,0.05752428,-0.06817692,-0.406931,274,-1009,24
2497.602,2.957031,-8.480262,0.4548983,2.681506,0.05432849,-0.05965481,-0.386691,253,-1057,40
2497.605,2.960938,-8.528146,0.4453215,2.719813,0.04687164,-0.05645902,-0.3632552,292,-1057,48
2497.609,2.964844,-8.614338,0.4309563,2.710236,0.04048005,-0.05752428,-0.3387541,224,-1014,68
2497.613,2.96875,-8.66701,0.3926491,2.719813,0.03621899,-0.06711166,-0.3163835,228,-997,22
2497.617,2.972656,-8.710106,0.272939,2.715025,0.0330232,-0.07456851,-0.2865561,260,-976,5
2497.621,2.976562,-8.729259,0.2106897,2.734178,0.03195793,-0.0777643,-0.2641856,277,-1058,77
2497.625,2.980469,-8.69574,0.1005565,2.772486,0.0330232,-0.07669904,-0.2450108,261,-1062,90
2497.629,2.984375,-8.753201,0.01436521,2.75812,0.03089267,-0.07669904,-0.2258361,255,-1012,51
2497.633,2.988281,-8.729259,-0.1388637,2.734178,0.02769688,-0.07669904,-0.2024002,245,-1004,27
2497.637,2.992188,-8.762778,-0.2154781,2.748544,0.03089267,-0.07456851,-0.1885518,275,-1031,40
2497.641,2.996094,-8.777143,-0.3064578,2.777274,0.03195793,-0.07882957,-0.1736381,350,-1016,76
2497.645,3,-8.714894,-0.320823,2.767697,0.03834952,-0.08202536,-0.1597897,267,-1044,112
2497.648,3.003906,-8.762778,-0.4213795,2.738967,0.0479369,-0.0777643,-0.1459412,252,-987,13
2497.652,3.007812,-8.801085,-0.4453215,2.671929,0.05432849,-0.0777643,-0.1384844,275,-1010,7
2497.656,3.011719,-8.925584,-0.521936,2.719813,0.05858954,-0.08415589,-0.1320928,245,-1000,48
2497.66,3.015625,-8.954314,-0.5650316,2.671929,0.06178534,-0.09906959,-0.1299623,259,-1039,50
2497.664,3.019531,-9.021352,-0.6224924,2.710236,0.06924219,-0.1139833,-0.1235707,274,-997,72
2497.668,3.023438,-9.102755,-0.6751649,2.643199,0.07350325,-0.1150486,-0.1203749,261,-1000,22
2497.672,3.027344,-9.093178,-0.7038953,2.600103,0.0809601,-0.1139833,-0.1182444,265,-1041,14
2497.676,3.03125,-9.102755,-0.6703765,2.576161,0.08415589,-0.1161138,-0.1182444,273,-1057,72
2497.68,3.035156,-9.112332,-0.6129156,2.557007,0.08735168,-0.1182444,-0.1225054,192,-1059,56
2497.684,3.039062,-9.150639,-0.5889736,2.509123,0.09267801,-0.1214401,-0.1235707,239,-1006,32
2497.688,3.042969,-9.131485,-0.6224924,2.480393,0.09267801,-0.1139833,-0.1267665,279,-985,20
2497.691,3.046875,-9.136274,-0.6081272,2.461239,0.0958738,-0.1054612,-0.128897,259,-1039,20
2497.695,3.050781,-9.11712,-0.5746084,2.432509,0.09693906,-0.08948221,-0.1352886,312,-1019,57
2497.699,3.054688,-9.074024,-0.593762,2.422932,0.09800433,-0.0809601,-0.1427454,228,-961,95
2497.703,3.058594,-9.064447,-0.6224924,2.442086,0.09480853,-0.07030745,-0.1512675,237,-1010,17
2497.707,3.0625,-9.160216,-0.6607997,2.408567,0.09480853,-0.06498113,-0.1587244,260,-996,-19
2497.711,3.066406,-9.198523,-0.6847417,2.466028,0.09267801,-0.06178534,-0.1704423,265,-1018,89
2497.715,3.070312,-9.294291,-0.7805097,2.39899,0.08841695,-0.0660464,-0.1842907,236,-1049,29
2497.719,3.074219,-9.351752,-0.890643,2.614468,0.08522115,-0.06178534,-0.1981392,259,-1024,10
2497.723,3.078125,-9.442731,-0.9002198,2.595315,0.08948221,-0.05219796,-0.2087918,270,-1016,37
2497.727,3.082031,-9.500192,-0.9911995,2.571373,0.08948221,-0.04154531,-0.2183792,296,-1115,-3
2497.73,3.085938,-9.696517,-1.115698,2.528277,0.09267801,-0.0330232,-0.2343582,294,-1022,66
2497.734,3.089844,-9.864111,-1.206678,2.547431,0.09480853,-0.03089267,-0.2450108,239,-982,51
2497.738,3.09375,-10.02213,-1.273715,2.566584,0.09906959,-0.0330232,-0.2535329,242,-996,5
2497.742,3.097656,-10.1179,-1.35033,2.624045,0.1054612,-0.02237055,-0.2652508,302,-998,10
2497.746,3.101562,-10.3238,-1.508347,2.652775,0.1171791,-0.008522115,-0.273773,297,-1033,41
2497.75,3.105469,-10.39084,-1.599327,2.710236,0.1246359,0,-0.2822951,264,-990,49
2497.754,3.109375,-10.64941,-1.695095,2.719813,0.1342233,0.002130529,-0.2897519,220,-1038,48
2497.758,3.113281,-10.72124,-1.723825,2.691083,0.1406149,-0.001065264,-0.2993393,233,-988,21
2497.762,3.117188,-11.00375,-1.891419,2.724601,0.1438107,-0.003195793,-0.3089267,246,-1054,29
2497.766,3.121094,-11.18571,-1.881843,2.734178,0.144876,-0.002130529,-0.3174488,234,-1061,57
2497.77,3.125,-11.33894,-1.891419,2.619257,0.1459412,0.007456851,-0.3249057,229,-1058,56
2497.773,3.128906,-11.44907,-2.025495,2.566584,0.1523328,0.02876214,-0.334493,259,-983,16
2497.777,3.132812,-11.67892,-2.035071,2.466028,0.1587244,0.04474111,-0.3494067,302,-1004,25
2497.781,3.136719,-11.84172,-1.987187,2.523489,0.1587244,0.07030745,-0.3589941,265,-1045,50
2497.785,3.140625,-12.07156,-1.987187,2.480393,0.1533981,0.05752428,-0.366451,239,-1042,81
2497.789,3.144531,-12.13381,-1.934515,2.437297,0.149137,0.03515373,-0.3728426,239,-984,50
2497.793,3.148438,-12.15776,-1.838747,2.226608,0.1533981,0.03728426,-0.3898868,270,-987,21
2497.797,3.152344,-12.13381,-1.714248,2.073379,0.1544633,0.06498113,-0.4005394,269,-1008,34
2497.801,3.15625,-12.16733,-1.661576,2.011129,0.149137,0.08415589,-0.406931,296,-999,57
2497.805,3.160156,-12.16733,-1.493982,1.982399,0.1523328,0.07989483,-0.4122573,227,-1036,57
2497.809,3.164062,-12.09072,-1.326388,2.149993,0.1640507,0.05326322,-0.4165184,232,-1026,42
2497.812,3.167969,-11.92312,-1.072602,2.27928,0.1885518,0.02663161,-0.4133226,318,-998,28
2497.816,3.171875,-11.79384,-0.914585,2.552219,0.1992044,0.02876214,-0.4111921,283,-1019,54
2497.82,3.175781,-11.54484,-0.7613561,3.011906,0.2098571,0.03728426,-0.406931,284,-1026,89
2497.824,3.179688,-11.28148,-0.521936,3.715801,0.2109224,0.0628506,-0.40267,236,-975,65
2497.828,3.183594,-11.06121,-0.2873042,4.726154,0.185356,0.1267665,-0.3930826,226,-970,47
2497.832,3.1875,-11.08037,-0.03351882,5.568913,0.1352886,0.1661813,-0.3824299,306,-961,5
2497.836,3.191406,-11.16656,0.296881,6.090849,0.05432849,0.1821602,-0.3834952,256,-1040,61
2497.84,3.195312,-11.40598,0.5841852,5.923255,-0.04900216,0.1821602,-0.3877563,256,-1041,77
2497.844,3.199219,-11.48259,1.302446,6.081272,-0.1960087,0.1842907,-0.4207795,242,-1018,39
2497.848,3.203125,-11.29106,1.987187,6.330269,-0.2950782,0.2034655,-0.4410195,314,-985,18
2497.852,3.207031,-11.16656,2.705448,6.603208,-0.3856257,0.237554,-0.4601942,289,-1028,25
2497.855,3.210938,-11.14261,3.318364,6.517017,-0.459129,0.273773,-0.4814995,283,-1033,79
2497.859,3.214844,-11.49217,3.993528,6.29675,-0.5379585,0.2673814,-0.5166533,257,-990,66
2497.863,3.21875,-11.76032,4.189853,6.224924,-0.6050702,0.221575,-0.5496764,223,-999,28
2497.867,3.222656,-12.04283,4.031836,6.153098,-0.680704,0.1619202,-0.5848302,288,-1030,41
2497.871,3.226562,-12.2631,3.552995,6.023811,-0.7552725,0.1097222,-0.6157228,303,-1039,35
2497.875,3.230469,-12.28704,2.614468,5.84664,-0.8255799,0.0660464,-0.6508766,254,-1034,75
2497.879,3.234375,-12.15297,1.819593,5.645528,-0.850081,0.05432849,-0.6721819,242,-989,71
2497.883,3.238281,-11.89918,0.9624691,5.544971,-0.8415589,0.05219796,-0.6881608,245,-1044,31
2497.887,3.242188,-11.55921,0.05746084,5.477933,-0.8117315,0.04900216,-0.6934871,267,-1036,-7
2497.891,3.246094,-10.95587,-0.9289502,5.6982,-0.7701862,0.0330232,-0.664725,312,-1042,49
2497.895,3.25,-10.51533,-1.546654,5.832275,-0.7339672,0.008522115,-0.624245,237,-1054,31
2497.898,3.253906,-9.993398,-2.097321,5.942409,-0.6956177,-0.02024002,-0.5773733,255,-984,40
2497.902,3.257812,-9.509769,-2.691083,5.995081,-0.6530071,-0.04687164,-0.5305017,316,-1002,43
2497.906,3.261719,-8.614338,-3.169923,6.066907,-0.6103965,-0.06072007,-0.4857606,305,-1041,72
2497.91,3.265625,-7.891289,-3.763685,5.966351,-0.5379585,-0.06817692,-0.4282363,232,-1052,37
2497.914,3.269531,-7.129933,-4.132392,5.894524,-0.4804343,-0.06498113,-0.3824299,294,-986,51
2497.918,3.273438,-6.421249,-4.381389,5.813122,-0.4133226,-0.06391587,-0.3355583,242,-1008,23
2497.922,3.277344,-5.78918,-4.472369,5.679046,-0.3472762,-0.0660464,-0.2897519,303,-1036,43
2497.926,3.28125,-5.185841,-4.34787,5.525817,-0.2609898,-0.06924219,-0.237554,295,-1040,57
2497.93,3.285156,-4.778827,-4.070143,5.750872,-0.1928129,-0.07030745,-0.2119876,227,-1045,75
2497.934,3.289062,-4.663905,-3.916914,5.712565,-0.1161138,-0.07137272,-0.1938781,276,-973,41
2497.938,3.292969,-4.668693,-3.639187,5.736507,-0.03834952,-0.07882957,-0.1842907,300,-1021,29
2497.941,3.296875,-4.702212,-3.39019,5.798756,0.0660464,-0.08202536,-0.1800297,291,-1044,11
2497.945,3.300781,-4.76925,-3.131616,5.827487,0.1384844,-0.07243798,-0.1864213,271,-1034,16
2497.949,3.304688,-5.085284,-2.896984,5.904101,0.2077266,-0.05965481,-0.2024002,266,-1001,83
2497.953,3.308594,-5.334281,-2.600103,5.894524,0.2609898,-0.0628506,-0.2247708,236,-967,26
2497.957,3.3125,-5.741296,-2.183512,5.84664,0.314253,-0.07137272,-0.2524677,324,-993,40
2497.961,3.316406,-6.038177,-1.824382,5.837064,0.3462109,-0.07563377,-0.2716424,294,-1042,59
2497.965,3.320312,-6.253655,-1.503559,5.750872,0.3739078,-0.07243798,-0.2918825,230,-1041,76
2497.969,3.324219,-6.607997,-1.254562,5.707777,0.3930826,-0.07350325,-0.3067962,241,-991,-10
2497.973,3.328125,-6.880936,-0.8523358,5.597643,0.4090615,-0.07563377,-0.3227751,294,-978,52
2497.977,3.332031,-7.173028,-0.4644751,5.477933,0.4175837,-0.07137272,-0.3334278,318,-1029,38
2497.98,3.335938,-7.465121,-0.225055,5.516241,0.4197142,-0.07030745,-0.3408846,317,-1035,81
2497.984,3.339844,-7.752425,0.1292869,5.453991,0.4122573,-0.07030745,-0.3472762,240,-1004,95
2497.988,3.34375,-8.164228,0.5841852,5.477933,0.3845605,-0.07030745,-0.3483415,250,-983,44
2497.992,3.347656,-8.441955,0.8236054,5.353435,0.3611246,-0.07669904,-0.3483415,268,-981,34
2497.996,3.351562,-8.734048,1.024718,5.243302,0.3323625,-0.08202536,-0.3440804,299,-1000,72
2498,3.355469,-9.064447,1.11091,5.281609,0.3036004,-0.09480853,-0.3419499,272,-1046,91
2498.004,3.359375,-9.423578,1.211466,5.214571,0.2684466,-0.1043959,-0.3291667,323,-1010,59
2498.008,3.363281,-9.653421,1.321599,5.185841,0.2205097,-0.1097222,-0.3110572,237,-1023,38
2498.012,3.367188,-9.859322,1.283292,5.152322,0.185356,-0.1097222,-0.2918825,319,-1065,50
2498.016,3.371094,-10.06044,1.25935,5.181052,0.1459412,-0.1012001,-0.2673814,300,-1008,64
2498.02,3.375,-10.29028,1.158794,5.15711,0.108657,-0.09054748,-0.2343582,272,-1026,66
2498.023,3.378906,-10.38126,1.010353,5.190629,0.06924219,-0.07989483,-0.1832255,255,-1027,8
2498.027,3.382812,-10.40999,0.8714894,5.176264,0.04474111,-0.07350325,-0.1395496,308,-1003,16
2498.031,3.386719,-10.33816,0.6320692,4.984728,0.02130529,-0.07563377,-0.0958738,322,-1055,40
2498.035,3.390625,-10.18015,0.3878607,4.994305,0.005326322,-0.0809601,-0.05006743,243,-1064,80
2498.039,3.394531,-9.935937,0.07182605,4.884171,-0.00958738,-0.08309063,0.0149137,212,-1000,64
2498.043,3.398438,-9.797073,-0.1292869,4.841076,-0.02343582,-0.07243798,0.05858954,268,-964,27
2498.047,3.402344,-9.605537,-0.3639187,4.821922,-0.01704423,-0.07137272,0.1139833,283,-1039,18
2498.051,3.40625,-9.394847,-0.5315128,4.702212,-0.02450108,-0.06817692,0.1640507,277,-1045,43
2498.055,3.410156,-9.097966,-0.7086837,4.654328,-0.02450108,-0.0660464,0.2258361,244,-1061,64
2498.059,3.414062,-8.925584,-0.818817,4.644751,-0.02024002,-0.0777643,0.2716424,252,-1025,14
2498.062,3.417969,-8.75799,-0.8858546,4.577714,-0.0149137,-0.0958738,0.3163835,298,-982,35
2498.066,3.421875,-8.604761,-0.9050082,4.453215,-0.01597897,-0.1107875,0.3611246,318,-1046,42
2498.07,3.425781,-8.499416,-0.8810662,4.31914,-0.00958738,-0.1225054,0.4111921,301,-1035,32
2498.074,3.429688,-8.317457,-0.8475474,4.314351,-0.006391587,-0.1246359,0.4463458,236,-1025,43
2498.078,3.433594,-8.298303,-0.7086837,4.185065,-0.004261058,-0.1267665,0.4783037,225,-976,15
2498.082,3.4375,-8.2169,-0.6703765,4.132392,-0.004261058,-0.1342233,0.5049353,289,-996,0
2498.086,3.441406,-8.154651,-0.5027823,4.113238,-0.01278317,-0.1480718,0.5336975,256,-1022,20
2498.09,3.445312,-8.221689,-0.3830723,4.07972,-0.02130529,-0.1576591,0.551807,292,-1026,87
2498.094,3.449219,-8.18817,-0.3064578,4.022259,-0.0298274,-0.1661813,0.5645902,274,-970,21
2498.098,3.453125,-8.231265,-0.2298434,3.98874,-0.04261058,-0.1725728,0.5784386,307,-993,25
2498.102,3.457031,-8.33661,-0.1053449,3.998317,-0.05326322,-0.1757686,0.592287,306,-1077,6
2498.105,3.460938,-8.374917,-0.009576807,3.979163,-0.07243798,-0.1896171,0.6040049,270,-1026,84
2498.109,3.464844,-8.389283,0.1436521,3.979163,-0.08202536,-0.1981392,0.6114618,267,-978,51
2498.113,3.46875,-8.485051,0.1963245,3.98874,-0.09906959,-0.205596,0.6189186,233,-997,57
2498.117,3.472656,-8.470685,0.1484405,3.916914,-0.1182444,-0.2119876,0.6274408,313,-992,32
2498.121,3.476562,-8.413225,0.2298434,3.892972,-0.1480718,-0.2151834,0.6370281,284,-1055,90
2498.125,3.480469,-8.499416,0.1771709,3.926491,-0.1683118,-0.2205097,0.6476808,261,-1040,54
2498.129,3.484375,-8.394071,0.1628057,3.830723,-0.1832255,-0.2279666,0.6519418,241,-1017,75
2498.133,3.488281,-8.42759,0.1771709,3.806781,-0.1981392,-0.2396845,0.6572682,256,-1004,34
2498.137,3.492188,-8.317457,0.1340753,3.74932,-0.2205097,-0.2428803,0.660464,262,-1024,52
2498.141,3.496094,-8.264784,0.08140286,3.653552,-0.2332929,-0.2460761,0.6636597,298,-1046,96
2498.145,3.5,-8.202535,0.05746084,3.529053,-0.241815,-0.2460761,0.6689861,279,-1021,49
2498.148,3.503906,-8.12592,-0.04309563,3.423708,-0.2556635,-0.2471413,0.6700513,210,-994,17
2498.152,3.507812,-8.063671,-0.08140286,3.337517,-0.2620551,-0.2535329,0.6753777,284,-997,26
2498.156,3.511719,-7.915231,-0.1436521,3.337517,-0.2652508,-0.2599245,0.6764429,276,-1046,48
2498.16,3.515625,-7.920019,-0.1771709,3.32794,-0.2684466,-0.2588593,0.680704,228,-1005,62
2498.164,3.519531,-7.872135,-0.2106897,3.385401,-0.2695119,-0.2503371,0.6828345,241,-995,85
2498.168,3.523438,-7.819463,-0.3303998,3.246537,-0.2705772,-0.2386192,0.6838998,247,-1009,41
2498.172,3.527344,-7.785944,-0.4357447,3.213019,-0.2705772,-0.2290319,0.6817692,306,-1021,55
2498.176,3.53125,-7.785944,-0.4836287,3.193865,-0.2684466,-0.2205097,0.6775082,279,-1031,68
2498.18,3.535156,-7.776367,-0.4979939,3.102885,-0.2652508,-0.2130529,0.6721819,234,-1034,38
2498.184,3.539062,-7.742848,-0.641646,3.045425,-0.2588593,-0.205596,0.6668555,259,-1001,7
2498.188,3.542969,-7.675811,-0.6703765,2.973598,-0.2503371,-0.1949434,0.6593987,319,-1006,19
2498.191,3.546875,-7.747637,-0.7134721,2.901772,-0.2439456,-0.1874865,0.6498113,271,-1006,60
2498.195,3.550781,-7.814674,-0.7182605,2.935291,-0.2354234,-0.1725728,0.6423545,305,-1022,64
2498.199,3.554688,-7.757213,-0.7422025,2.896984,-0.2311624,-0.1565939,0.628506,276,-994,72
2498.203,3.558594,-7.800309,-0.7422025,2.786851,-0.2269013,-0.1374191,0.6093313,255,-998,52
2498.207,3.5625,-7.910442,-0.7038953,2.796428,-0.2183792,-0.1299623,0.5954828,270,-1005,65
2498.211,3.566406,-7.94875,-0.6847417,2.772486,-0.2130529,-0.1193096,0.5763081,328,-1005,85
2498.215,3.570312,-7.982268,-0.6943185,2.815581,-0.2045308,-0.112918,0.5592638,269,-1014,94
2498.219,3.574219,-8.092402,-0.6272808,2.710236,-0.1938781,-0.09267801,0.5294364,245,-970,6
2498.223,3.578125,-8.121132,-0.6368576,2.75812,-0.1885518,-0.07669904,0.5091964,301,-990,7
2498.227,3.582031,-8.212112,-0.6129156,2.710236,-0.1832255,-0.07030745,0.4868258,276,-1059,50
2498.23,3.585938,-8.279149,-0.6512229,2.686294,-0.181095,-0.06711166,0.46339,281,-1045,50
2498.234,3.589844,-8.379706,-0.6129156,2.600103,-0.1747034,-0.05752428,0.4293016,230,-997,73
2498.238,3.59375,-8.441955,-0.6129156,2.614468,-0.1725728,-0.0479369,0.4058658,230,-990,41
2498.242,3.597656,-8.504204,-0.617704,2.604891,-0.169377,-0.03089267,0.3824299,318,-1018,20
2498.246,3.601562,-8.552088,-0.5985504,2.533065,-0.1683118,-0.01065264,0.3611246,289,-1037,70
2498.25,3.605469,-8.595184,-0.5793968,2.403778,-0.1640507,0.00958738,0.334493,246,-1045,92
2498.254,3.609375,-8.633491,-0.5506664,2.437297,-0.1672465,0.0149137,0.314253,258,-969,48
2498.258,3.613281,-8.662222,-0.5841852,2.355894,-0.1661813,0.0149137,0.2972088,238,-997,-3
2498.262,3.617188,-8.681375,-0.545878,2.27928,-0.1661813,0.0149137,0.2812298,282,-1064,43
2498.266,3.621094,-8.724471,-0.5123592,2.221819,-0.1661813,0.01597897,0.2641856,265,-1038,39
2498.27,3.625,-8.777143,-0.4788403,2.149993,-0.1672465,0.0149137,0.2535329,217,-1024,60
2498.273,3.628906,-8.853758,-0.4501099,2.145205,-0.1683118,0.007456851,0.2471413,271,-1001,-3
2498.277,3.632812,-8.90643,-0.4261679,2.1883,-0.169377,-0.004261058,0.237554,281,-995,47
2498.281,3.636719,-8.930372,-0.4022259,2.1883,-0.1715076,-0.02130529,0.2311624,291,-1020,52
2498.285,3.640625,-9.002198,-0.3016694,2.169147,-0.1725728,-0.03728426,0.2279666,294,-986,85
2498.289,3.644531,-9.011775,-0.2825158,2.231396,-0.1736381,-0.04900216,0.2205097,253,-1017,44
2498.293,3.648438,-9.030929,-0.2154781,2.212242,-0.1747034,-0.05858954,0.2151834,261,-997,5
2498.297,3.652344,-9.035717,-0.1484405,2.236184,-0.1800297,-0.05965481,0.2130529,307,-1026,26
2498.301,3.65625,-9.002198,-0.1053449,2.135628,-0.1864213,-0.05752428,0.2077266,276,-1051,79
2498.305,3.660156,-9.011775,-0.07182605,2.154781,-0.1917476,-0.05645902,0.2066613,246,-1036,58
2498.309,3.664062,-9.011775,0.04788403,2.140416,-0.1981392,-0.05113269,0.201335,235,-1030,5
2498.312,3.667969,-8.992621,0.1915361,2.173935,-0.2066613,-0.04474111,0.2002697,272,-973,22
2498.316,3.671875,-8.978256,0.320823,2.1883,-0.2183792,-0.02876214,0.1949434,276,-1050,77
2498.32,3.675781,-9.059659,0.4261679,2.207454,-0.221575,-0.01597897,0.1917476,278,-1028,33
2498.324,3.679688,-9.064447,0.4932055,2.293645,-0.2290319,-0.01171791,0.1896171,195,-984,58
2498.328,3.683594,-9.011775,0.5889736,2.264915,-0.2311624,0,0.1885518,255,-998,20
2498.332,3.6875,-9.08839,0.6703765,2.403778,-0.2407498,0.00958738,0.1874865,306,-977,37
2498.336,3.691406,-9.131485,0.7422025,2.394202,-0.2460761,0.02769688,0.185356,264,-1026,96
2498.34,3.695312,-9.188946,0.8523358,2.466028,-0.2514024,0.04900216,0.1832255,227,-1022,22
2498.344,3.699219,-9.299079,0.8475474,2.499547,-0.2588593,0.07030745,0.1842907,259,-987,52
2498.348,3.703125,-9.423578,0.8858546,2.552219,-0.2652508,0.09480853,0.1842907,238,-964,25
2498.352,3.707031,-9.514557,0.8379706,2.619257,-0.2727077,0.1107875,0.1842907,293,-1032,20
2498.355,3.710938,-9.677363,0.7709329,2.60968,-0.2790993,0.1235707,0.1864213,326,-1002,76
2498.359,3.714844,-9.830592,0.7613561,2.537854,-0.2822951,0.1374191,0.1906823,237,-966,54
2498.363,3.71875,-10.12747,0.6943185,2.513912,-0.2854909,0.1565939,0.1960087,245,-989,7
2498.367,3.722656,-10.28549,0.6464344,2.442086,-0.2854909,0.1661813,0.1981392,277,-953,20
2498.371,3.726562,-10.53928,0.5602432,2.432509,-0.2790993,0.165116,0.2034655,322,-1026,29
2498.375,3.730469,-10.78348,0.4357447,2.442086,-0.2684466,0.1619202,0.2045308,212,-1016,71
2498.379,3.734375,-11.08037,0.3256114,2.422932,-0.2535329,0.1523328,0.205596,211,-1000,55
2498.383,3.738281,-11.31021,0.1580173,2.422932,-0.2450108,0.1427454,0.2045308,200,-1018,11
2498.387,3.742188,-11.52569,0.05267244,2.365471,-0.2322276,0.1384844,0.205596,330,-1035,20
2498.391,3.746094,-11.73638,-0.07661445,2.322376,-0.2226403,0.1235707,0.2034655,264,-1070,59
2498.395,3.75,-12.11945,-0.1675941,2.15957,-0.2098571,0.1161138,0.2066613,231,-1005,52
2498.398,3.753906,-12.29183,-0.2394202,2.035071,-0.1949434,0.1043959,0.2119876,248,-971,-5
2498.402,3.757812,-12.55998,-0.2154781,1.953669,-0.1736381,0.09693906,0.2151834,298,-1000,10
2498.406,3.761719,-12.81377,-0.1292869,1.886631,-0.1555286,0.09480853,0.2226403,311,-1056,15
2498.41,3.765625,-13.01967,-0.07182605,1.776498,-0.1342233,0.08735168,0.2343582,318,-1021,45
2498.414,3.769531,-13.3357,-0.01436521,1.747767,-0.1054612,0.06711166,0.2492719,235,-955,80
2498.418,3.773438,-13.45062,0.1053449,1.805228,-0.0958738,0.05752428,0.2652508,255,-1000,49
2498.422,3.777344,-13.5847,0.1867477,1.862689,-0.1012001,0.04154531,0.2822951,303,-999,29
2498.426,3.78125,-13.71878,0.3160346,1.819593,-0.108657,0.02024002,0.3004046,278,-1066,51
2498.43,3.785156,-13.7092,0.4501099,1.853112,-0.112918,0.003195793,0.3217099,223,-1010,90
2498.434,3.789062,-13.67089,0.4022259,2.15957,-0.1171791,0.004261058,0.334493,249,-953,64
2498.438,3.792969,-13.56555,0.3878607,2.719813,-0.1097222,0.02663161,0.3483415,288,-965,26
2498.441,3.796875,-13.35965,0.3687071,3.332729,-0.08415589,0.05539375,0.3600594,272,-1056,48
2498.445,3.800781,-13.03882,0.2681506,4.922479,-0.03195793,0.09161274,0.386691,298,-1010,59
2498.449,3.804688,-13.0053,0.1484405,5.24809,0.02876214,0.1235707,0.4101268,279,-988,70
2498.453,3.808594,-13.07234,0.02394202,4.860229,0.08522115,0.144876,0.4420847,261,-973,1
2498.457,3.8125,-13.09149,-0.2537854,5.080496,0.1310275,0.1384844,0.4676511,300,-1004,21
2498.461,3.816406,-12.51689,-0.7422025,5.415684,0.1917476,0.1075917,0.4761732,279,-1046,51
2498.465,3.820312,-11.96622,-1.197101,5.664681,0.2311624,0.1342233,0.4687164,238,-1031,44
2498.469,3.824219,-11.51132,-1.58975,5.904101,0.2769688,0.1715076,0.4665858,247,-982,58
2498.473,3.828125,-11.19529,-1.790863,6.335058,0.3121225,0.1928129,0.4665858,247,-986,10
2498.477,3.832031,-11.12346,-1.766921,6.545747,0.3494067,0.1778992,0.479369,346,-1040,36
2498.48,3.835938,-11.39161,-1.628057,6.540959,0.3760383,0.1480718,0.4783037,308,-1064,98
2498.484,3.839844,-11.50174,-1.61848,6.536171,0.3994742,0.1150486,0.4740427,220,-1013,108
2498.488,3.84375,-11.54963,-1.489193,6.560113,0.4111921,0.08309063,0.4740427,249,-960,6
2498.492,3.847656,-11.47301,-1.177947,6.698976,0.4079963,0.06391587,0.4697816,311,-995,30
2498.496,3.851562,-11.20965,-0.56982,6.981492,0.4037352,0.04367584,0.4548679,289,-1019,28
2498.5,3.855469,-11.01812,-0.248997,6.914454,0.4048005,0.02876214,0.4420847,235,-1060,84
2498.504,3.859375,-10.81221,-0.08619126,6.876147,0.3962784,0.004261058,0.4346279,259,-955,34
2498.508,3.863281,-10.50097,-0.07182605,6.83784,0.3792341,-0.04261058,0.427171,252,-996,0
2498.512,3.867188,-9.878476,0.1771709,6.641515,0.3249057,-0.08841695,0.4261058,248,-1048,19
2498.516,3.871094,-9.26556,0.4022259,6.684611,0.2769688,-0.1161138,0.4250405,283,-1041,41
2498.52,3.875,-8.595184,0.5841852,6.593631,0.2300971,-0.1374191,0.4165184,236,-1048,60
2498.523,3.878906,-7.939173,0.7757213,6.445191,0.1874865,-0.1512675,0.40267,244,-1003,13
2498.527,3.882812,-7.086837,1.010353,6.473921,0.1342233,-0.1576591,0.3813647,293,-982,-1
2498.531,3.886719,-6.564901,1.173159,6.382942,0.0958738,-0.1555286,0.3653857,340,-1039,2
2498.535,3.890625,-6.153098,1.316811,6.315904,0.0628506,-0.149137,0.3557983,281,-997,108
2498.539,3.894531,-5.774814,1.455675,6.272808,0.02556635,-0.1533981,0.3483415,224,-994,60
2498.543,3.898438,-5.372589,1.426944,6.153098,-0.02024002,-0.1608549,0.3387541,236,-1009,8
2498.547,3.902344,-5.114015,1.273715,6.071695,-0.04580637,-0.1480718,0.330232,295,-992,21
2498.551,3.90625,-4.874595,1.106121,5.985504,-0.06924219,-0.1416802,0.3227751,297,-1044,98
2498.555,3.910156,-4.812345,0.9097966,5.889736,-0.08841695,-0.1310275,0.3281014,265,-1015,43
2498.559,3.914062,-4.831499,0.6272808,5.798756,-0.108657,-0.1139833,0.3398194,208,-990,75
2498.562,3.917969,-4.999093,0.4261679,5.746084,-0.1171791,-0.1043959,0.3515373,277,-971,2
2498.566,3.921875,-5.252878,0.3016694,5.640739,-0.1246359,-0.09693906,0.366451,316,-1029,27
2498.57,3.925781,-5.453991,0.296881,5.540183,-0.1310275,-0.09267801,0.3824299,227,-1031,45
2498.574,3.929688,-5.822698,0.1867477,5.492299,-0.1278317,-0.08202536,0.40267,295,-960,58
2498.578,3.933594,-6.100426,0.1053449,5.477933,-0.1257012,-0.07456851,0.4079963,272,-973,42
2498.582,3.9375,-6.368576,0.05746084,5.410896,-0.1214401,-0.06498113,0.4111921,268,-973,20
2498.586,3.941406,-6.584055,-0.08619126,5.425261,-0.1161138,-0.05752428,0.4090615,313,-1038,74
2498.59,3.945312,-6.880936,-0.2346318,5.396531,-0.1065264,-0.05326322,0.3994742,231,-1033,85
2498.594,3.949219,-7.062895,-0.4213795,5.401319,-0.09480853,-0.04580637,0.3749731,260,-974,72
2498.598,3.953125,-7.278373,-0.56982,5.382165,-0.08415589,-0.03728426,0.3526025,221,-1009,19
2498.602,3.957031,-7.445967,-0.5602432,5.329493,-0.07456851,-0.0330232,0.3185141,280,-1004,18
2498.605,3.960938,-7.608773,-0.6560113,5.200206,-0.06178534,-0.02876214,0.2801645,288,-1005,51
2498.609,3.964844,-8.001422,-0.7086837,5.214571,-0.04474111,-0.02024002,0.2173139,232,-1035,83
2498.613,3.96875,-8.207323,-0.7709329,5.171476,-0.03195793,-0.01384844,0.1640507,243,-966,22
2498.617,3.972656,-8.384494,-0.8954314,5.114015,-0.0298274,-0.00958738,0.1161138,293,-957,14
2498.621,3.976562,-8.585607,-0.9576807,5.114015,-0.01597897,0.001065264,0.0660464,349,-1022,39
2498.625,3.980469,-9.011775,-1.000776,5.118803,0.006391587,0.01704423,-0.008522115,238,-1012,53
2498.629,3.984375,-9.270349,-1.024718,5.15711,0.02024002,0.02343582,-0.06391587,221,-992,13
2498.633,3.988281,-9.662998,-0.9768343,5.094861,0.03515373,0.02556635,-0.1257012,229,-969,22
2498.637,3.992188,-10.0317,-0.9193734,5.075708,0.05539375,0.01384844,-0.181095,286,-1018,10
2498.641,3.996094,-10.37647,-0.7661445,4.989516,0.0809601,-0.00958738,-0.2535329,299,-1020,76
2498.645,4,-10.61589,-0.6703765,4.975151,0.0958738,-0.03089267,-0.3025351,261,-1008,81
2498.648,4.003906,-10.80743,-0.5746084,4.965574,0.1065264,-0.05645902,-0.3494067,261,-962,32
2498.652,4.007812,-10.92235,-0.3351882,4.908113,0.1150486,-0.07989483,-0.3877563,311,-958,46
2498.656,4.011719,-10.90798,-0.02873042,4.774038,0.1257012,-0.1182444,-0.4293016,313,-1049,24
2498.66,4.015625,-10.82658,0.1197101,4.759673,0.1299623,-0.149137,-0.459129,330,-999,57
2498.664,4.019531,-10.68772,0.3256114,4.644751,0.1342233,-0.1736381,-0.4836301,235,-996,98
2498.668,4.023438,-10.48181,0.4979939,4.563348,0.1331581,-0.2024002,-0.5006743,225,-972,18
2498.672,4.027344,-10.1562,0.6560113,4.434061,0.1310275,-0.2269013,-0.5241101,340,-1003,23
2498.676,4.03125,-9.868899,0.7852981,4.357447,0.1267665,-0.2460761,-0.5379585,263,-1007,80
2498.68,4.035156,-9.59596,0.8092402,4.22816,0.1161138,-0.2609898,-0.5507417,279,-1034,66
2498.684,4.039062,-9.23683,0.8283938,4.213795,0.1065264,-0.2727077,-0.5645902,258,-1015,22
2498.688,4.042969,-8.868123,0.8523358,4.180276,0.09906959,-0.2769688,-0.5773733,257,-968,11
2498.691,4.046875,-8.609549,0.7134721,4.027047,0.09054748,-0.2759035,-0.5986786,285,-1029,13
2498.695,4.050781,-8.293515,0.6129156,4.007894,0.08735168,-0.2727077,-0.6114618,285,-1039,55
2498.699,4.054688,-8.116344,0.4692635,3.892972,0.08202536,-0.2695119,-0.6253102,260,-1006,56
2498.703,4.058594,-7.939173,0.2633622,3.854665,0.08202536,-0.2663161,-0.6348976,271,-1009,-23
2498.707,4.0625,-7.685387,-0.02873042,3.782839,0.07989483,-0.2567287,-0.648746,265,-943,24
2498.711,4.066406,-7.589619,-0.1580173,3.715801,0.0809601,-0.2492719,-0.6572682,273,-1010,75
2498.715,4.070312,-7.474698,-0.3543418,3.677494,0.08309063,-0.2439456,-0.664725,274,-1030,93
2498.719,4.074219,-7.402872,-0.4501099,3.634398,0.08735168,-0.2386192,-0.6679208,228,-979,35
2498.723,4.078125,-7.359776,-0.6799533,3.562572,0.1012001,-0.2205097,-0.6721819,220,-925,24
2498.727,4.082031,-7.273585,-0.7661445,3.514688,0.1139833,-0.2109224,-0.6743124,301,-1076,36
2498.73,4.085938,-7.364564,-0.8236054,3.414132,0.1235707,-0.2045308,-0.6753777,315,-1005,76
2498.734,4.089844,-7.359776,-0.8571242,3.466804,0.1384844,-0.1992044,-0.6753777,266,-1008,70
2498.738,4.09375,-7.398083,-0.9337386,3.380613,0.1565939,-0.1981392,-0.6764429,268,-985,49
2498.742,4.097656,-7.345411,-0.8714894,3.303998,0.1683118,-0.1981392,-0.6775082,299,-979,-32
2498.746,4.101562,-7.43639,-0.9337386,3.232172,0.1789644,-0.1938781,-0.6753777,280,-1056,-7
2498.75,4.105469,-7.426814,-0.9481039,3.165135,0.1885518,-0.185356,-0.6753777,280,-997,34
2498.754,4.109375,-7.479486,-0.890643,3.112462,0.2066613,-0.1661813,-0.6689861,247,-959,51
2498.758,4.113281,-7.388506,-0.8475474,3.107674,0.2141182,-0.1470065,-0.6657903,275,-975,12
2498.762,4.117188,-7.422025,-0.7709329,3.064578,0.2226403,-0.1331581,-0.6572682,312,-998,34
2498.766,4.121094,-7.37893,-0.6895301,3.011906,0.2300971,-0.1214401,-0.6519418,287,-1014,57
2498.77,4.125,-7.393295,-0.5985504,3.011906,0.2354234,-0.09800433,-0.6402239,242,-1049,80
2498.773,4.128906,-7.350199,-0.5650316,2.978387,0.2364887,-0.07669904,-0.6327671,249,-966,-35
2498.777,4.132812,-7.364564,-0.4596867,2.930503,0.2364887,-0.06178534,-0.6210492,285,-946,24
2498.781,4.136719,-7.402872,-0.3734955,2.8491,0.2290319,-0.0479369,-0.6050702,325,-1041,47
2498.785,4.140625,-7.469909,-0.3016694,2.825158,0.2279666,-0.03089267,-0.5933523,327,-1062,38
2498.789,4.144531,-7.546524,-0.2154781,2.810793,0.2183792,-0.0181095,-0.5741775,260,-983,59
2498.793,4.148438,-7.517793,-0.1005565,2.834735,0.2130529,-0.006391587,-0.5581986,206,-953,33
2498.797,4.152344,-7.627926,0.01915361,2.782062,0.2045308,-0.002130529,-0.5411543,272,-992,36
2498.801,4.15625,-7.699753,0.04788403,2.738967,0.1960087,0.002130529,-0.5230448,285,-1008,31
2498.805,4.160156,-7.718906,0.1723825,2.695871,0.1842907,0.00958738,-0.4932174,249,-1038,72
2498.809,4.164062,-7.833828,0.2106897,2.643199,0.1736381,0.01278317,-0.4708469,277,-984,82
2498.812,4.167969,-7.891289,0.2106897,2.652775,0.1640507,0.01278317,-0.4474111,283,-973,17
2498.816,4.171875,-7.97748,0.2920926,2.662352,0.1555286,0.008522115,-0.4261058,281,-1053,30
2498.82,4.175781,-8.106767,0.2777274,2.652775,0.1438107,0.008522115,-0.3888215,329,-1017,64
2498.824,4.179688,-8.231265,0.296881,2.652775,0.1416802,0.006391587,-0.3611246,281,-1026,71
2498.828,4.183594,-8.327033,0.2920926,2.600103,0.1395496,0.002130529,-0.3238404,247,-1023,7
2498.832,4.1875,-8.346187,0.2825158,2.619257,0.1374191,-0.00958738,-0.3067962,328,-974,5
2498.836,4.191406,-8.489839,0.2394202,2.595315,0.1384844,-0.0181095,-0.2705772,313,-1026,31
2498.84,4.195312,-8.5473,0.1915361,2.580949,0.1384844,-0.02130529,-0.241815,277,-1025,63
2498.844,4.199219,-8.657433,0.1436521,2.604891,0.144876,-0.02663161,-0.2173139,217,-970,53
2498.848,4.203125,-8.714894,0.09576807,2.595315,0.1512675,-0.03089267,-0.1938781,222,-972,39
2498.852,4.207031,-8.848969,-0.02873042,2.523489,0.1523328,-0.03621899,-0.1661813,288,-1029,38
2498.855,4.210938,-8.8777,-0.1149217,2.552219,0.1587244,-0.03621899,-0.149137,314,-1049,60
2498.859,4.214844,-8.887277,-0.272939,2.499547,0.1661813,-0.03728426,-0.1374191,307,-1036,57
2498.863,4.21875,-8.8777,-0.3495534,2.37026,0.1747034,-0.03834952,-0.128897,249,-968,12
2498.867,4.222656,-8.863335,-0.521936,2.245761,0.1896171,-0.03408846,-0.1257012,314,-1024,-13
2498.871,4.226562,-8.839393,-0.6799533,2.135628,0.2034655,-0.01917476,-0.1246359,292,-991,34
2498.875,4.230469,-8.815451,-0.8858546,2.059013,0.2205097,0,-0.1278317,319,-1024,46
2498.879,4.234375,-8.801085,-1.077391,1.968034,0.2460761,0.02769688,-0.1374191,318,-1042,59
2498.883,4.238281,-8.748413,-1.130063,1.92015,0.2599245,0.04048005,-0.1416802,257,-988,20
2498.887,4.242188,-8.681375,-1.25935,1.905785,0.2876214,0.05752428,-0.1523328,312,-959,23
2498.891,4.246094,-8.580819,-1.316811,1.80044,0.309992,0.07350325,-0.169377,293,-1001,48
2498.895,4.25,-8.461109,-1.383849,1.73819,0.3355583,0.09267801,-0.181095,288,-1024,38
2498.898,4.253906,-8.494627,-1.426944,1.70946,0.3611246,0.1171791,-0.1981392,233,-1011,42
2498.902,4.257812,-8.504204,-1.556231,1.719037,0.390952,0.1470065,-0.2269013,275,-967,46
2498.906,4.261719,-8.485051,-1.503559,1.786074,0.4111921,0.1587244,-0.2439456,305,-1027,25
2498.91,4.265625,-8.508993,-1.580173,1.877054,0.4261058,0.1661813,-0.257794,277,-1068,61
2498.914,4.269531,-8.542512,-1.604115,1.996764,0.4420847,0.1704423,-0.2695119,277,-972,83
2498.918,4.273438,-8.700529,-1.671153,2.130839,0.4601942,0.1715076,-0.2759035,247,-964,-12
2498.922,4.277344,-8.671798,-1.757344,2.164358,0.4687164,0.1725728,-0.2790993,275,-992,79
2498.926,4.28125,-8.671798,-1.695095,2.183512,0.4729774,0.1747034,-0.2748382,314,-1016,50
2498.93,4.285156,-8.872911,-1.628057,2.245761,0.4814995,0.1768339,-0.2716424,248,-1050,72
2498.934,4.289062,-9.040505,-1.393425,2.360683,0.4910869,0.1874865,-0.2652508,254,-953,90
2498.938,4.292969,-9.284714,-1.273715,2.485181,0.5006743,0.1938781,-0.2631203,270,-988,4
2498.941,4.296875,-9.461885,-1.086968,2.667141,0.515588,0.1970739,-0.2631203,306,-1025,9
2498.945,4.300781,-9.758766,-0.914585,2.782062,0.5177185,0.1981392,-0.2599245,315,-995,109
2498.949,4.304688,-10.03649,-0.7374141,2.99754,0.5145227,0.1928129,-0.2567287,258,-1018,50
2498.953,4.308594,-10.16578,-0.545878,3.184288,0.5017395,0.1842907,-0.2567287,227,-984,25
2498.957,4.3125,-10.27591,-0.4979939,3.246537,0.4814995,0.1800297,-0.257794,285,-997,3
2498.961,4.316406,-10.42914,-0.4213795,3.32794,0.4527374,0.1747034,-0.2599245,245,-1031,86
2498.965,4.320312,-10.58237,-0.3399766,3.495534,0.4111921,0.1747034,-0.2641856,232,-1040,77
2498.969,4.324219,-10.74039,-0.2394202,3.495534,0.3717773,0.1789644,-0.2705772,247,-1003,83
2498.973,4.328125,-10.90319,-0.1915361,3.552995,0.3238404,0.1842907,-0.278034,254,-956,44
2498.977,4.332031,-11.09473,-0.1005565,3.529053,0.2695119,0.1864213,-0.2844256,322,-1014,33
2498.98,4.335938,-11.40598,0.009576807,3.399766,0.2183792,0.1725728,-0.2886867,337,-1050,30
2498.984,4.339844,-11.58794,0.1819593,3.280056,0.1512675,0.1470065,-0.2918825,246,-993,86
2498.988,4.34375,-11.73159,0.272939,3.08852,0.1097222,0.1331581,-0.2972088,261,-959,2
2498.992,4.347656,-11.94707,0.2873042,2.935291,0.06817692,0.1267665,-0.3025351,332,-958,10
2498.996,4.351562,-12.09072,0.3160346,2.705448,0.02450108,0.1150486,-0.3110572,313,-1039,50
2499,4.355469,-12.32056,0.1915361,2.523489,-0.0330232,0.09054748,-0.3163835,318,-1044,89
2499.004,4.359375,-12.36366,0.009576807,2.288857,-0.06178534,0.06817692,-0.3270362,256,-992,83
2499.008,4.363281,-12.44506,-0.2442086,2.097321,-0.07882957,0.07563377,-0.3387541,236,-1000,5
2499.012,4.367188,-12.3062,-0.3734955,2.221819,-0.08948221,0.1065264,-0.3568636,287,-976,42
2499.016,4.371094,-12.39239,-0.6512229,2.844312,-0.0958738,0.1384844,-0.3685815,321,-1049,56
2499.02,4.375,-12.47379,-0.9289502,3.533842,-0.0777643,0.1416802,-0.3834952,272,-1037,65
2499.023,4.378906,-12.55998,-1.005565,4.338293,-0.06178534,0.1661813,-0.3973436,275,-987,6
2499.027,4.382812,-12.62223,-0.9720459,5.15711,-0.05858954,0.2290319,-0.4005394,288,-993,4
2499.031,4.386719,-12.9239,-0.8619126,5.631162,-0.1012001,0.3281014,-0.3973436,311,-1035,11
2499.035,4.390625,-13.32134,-0.842759,5.592855,-0.165116,0.3451457,-0.406931,294,-998,93
2499.039,4.394531,-13.6661,-0.6512229,5.353435,-0.237554,0.3195793,-0.4324974,249,-1001,72
2499.043,4.398438,-13.65174,-0.344765,5.645528,-0.3025351,0.2908172,-0.4623248,221,-943,55
2499.047,4.402344,-13.20163,0.4070143,6.526594,-0.3898868,0.2993393,-0.5017395,302,-981,28
2499.051,4.40625,-13.03403,0.8954314,7.254431,-0.4601942,0.3398194,-0.5379585,303,-1040,41
2499.055,4.410156,-13.21599,1.455675,7.489063,-0.5123922,0.3653857,-0.5954828,244,-1036,85
2499.059,4.414062,-13.61822,1.92015,7.479486,-0.5390238,0.3387541,-0.6668555,274,-963,71
2499.062,4.417969,-14.15452,2.193089,7.321469,-0.5731123,0.2428803,-0.7584683,301,-1016,-4
2499.066,4.421875,-14.21677,1.953669,7.072472,-0.6253102,0.1608549,-0.813862,294,-1029,46
2499.07,4.425781,-14.0396,1.479617,6.904878,-0.6956177,0.08628642,-0.850081,298,-1034,46
2499.074,4.429688,-13.49372,0.8571242,6.919243,-0.7382283,0.02876214,-0.8681905,273,-1005,46
2499.078,4.433594,-12.57914,0.344765,6.493075,-0.7446198,0.004261058,-0.86606,263,-973,-1
2499.082,4.4375,-12.00453,-0.4932055,5.947197,-0.6988135,0.001065264,-0.8468852,294,-995,44
2499.086,4.441406,-11.4778,-1.086968,5.880159,-0.6327671,-0.006391587,-0.8234494,318,-1048,38
2499.09,4.445312,-10.97502,-1.685518,5.78918,-0.5656554,-0.01278317,-0.793622,245,-1013,30
2499.094,4.449219,-10.3238,-2.303222,5.793968,-0.5070659,-0.01384844,-0.7446198,259,-964,60
2499.098,4.453125,-9.653421,-2.873042,5.645528,-0.4261058,-0.02343582,-0.6753777,267,-978,50
2499.102,4.457031,-8.959103,-3.193865,5.602432,-0.3494067,-0.03728426,-0.6178534,329,-992,25
2499.105,4.460938,-8.374917,-3.371036,5.573701,-0.2663161,-0.05539375,-0.5581986,320,-1022,38
2499.109,4.464844,-7.637503,-3.586514,5.473145,-0.1928129,-0.06072007,-0.5070659,246,-1019,58
2499.113,4.46875,-6.703765,-3.873818,5.33907,-0.1043959,-0.0777643,-0.4484763,302,-989,20
2499.117,4.472656,-6.066907,-3.96001,5.434838,-0.03834952,-0.09267801,-0.4058658,305,-985,5
2499.121,4.476562,-5.544971,-3.912126,5.410896,0.03089267,-0.1054612,-0.3557983,325,-1066,5
2499.125,4.480469,-5.104438,-3.854665,5.415684,0.1043959,-0.1139833,-0.3131877,316,-1017,37
2499.129,4.484375,-4.817134,-3.591302,5.348647,0.185356,-0.1193096,-0.2631203,261,-989,40
2499.133,4.488281,-4.687847,-3.280056,5.358223,0.2386192,-0.1246359,-0.2396845,234,-972,27
2499.137,4.492188,-4.683058,-2.916138,5.353435,0.2918825,-0.1331581,-0.221575,317,-996,7
2499.141,4.496094,-4.793192,-2.5187,5.372589,0.3387541,-0.1384844,-0.2098571,315,-1028,68
2499.145,4.5,-5.013458,-2.020706,5.310339,0.3898868,-0.1438107,-0.2098571,217,-1033,42
2499.148,4.503906,-5.257667,-1.695095,5.310339,0.42291,-0.1438107,-0.2173139,239,-974,16
2499.152,4.507812,-5.439626,-1.403002,5.353435,0.4516721,-0.149137,-0.2279666,296,-917,35
2499.156,4.511719,-5.679046,-1.144428,5.310339,0.4751079,-0.1512675,-0.2396845,309,-1007,40
2499.16,4.515625,-5.995081,-0.9193734,5.252878,0.4964132,-0.1416802,-0.2567287,317,-1019,74
2499.164,4.519531,-6.234501,-0.7134721,5.262455,0.5006743,-0.1406149,-0.2684466,267,-985,68
2499.168,4.523438,-6.517017,-0.5889736,5.171476,0.4964132,-0.1331581,-0.2759035,259,-1021,33
2499.172,4.527344,-6.876147,-0.3495534,5.161899,0.4868258,-0.1331581,-0.2844256,301,-999,20
2499.176,4.53125,-7.302315,-0.09097966,5.027823,0.4719121,-0.1267665,-0.2918825,319,-1013,83
2499.18,4.535156,-7.694964,0.3351882,4.898537,0.4442153,-0.1310275,-0.2972088,283,-1028,31
2499.184,4.539062,-7.94875,0.6224924,4.841076,0.4165184,-0.1342233,-0.3014698,250,-967,70
2499.188,4.542969,-8.236054,0.9241618,4.730942,0.3888215,-0.1320928,-0.3014698,255,-995,-5
2499.191,4.546875,-8.599972,1.086968,4.683058,0.3515373,-0.1278317,-0.3004046,312,-1026,-5
2499.195,4.550781,-8.978256,1.268927,4.707,0.3036004,-0.1193096,-0.2897519,329,-1021,32
2499.199,4.554688,-9.346963,1.331176,4.826711,0.2567287,-0.1075917,-0.278034,280,-1028,56
2499.203,4.558594,-9.701305,1.383849,4.922479,0.2279666,-0.1065264,-0.2599245,268,-992,1
2499.207,4.5625,-9.950302,1.369483,4.879383,0.1874865,-0.1033307,-0.2332929,300,-976,3
2499.211,4.566406,-10.29986,1.254562,4.951209,0.1438107,-0.09267801,-0.1960087,354,-1033,82
2499.215,4.570312,-10.52491,1.000776,4.936844,0.1139833,-0.07882957,-0.1629855,269,-1033,42
2499.219,4.574219,-10.72124,0.9002198,4.989516,0.08948221,-0.07350325,-0.1235707,264,-956,80
2499.223,4.578125,-10.80264,0.6224924,5.046977,0.06072007,-0.0660464,-0.0777643,251,-928,56
2499.227,4.582031,-10.77391,0.320823,4.912902,0.02876214,-0.05645902,-0.01384844,311,-1021,-9
2499.23,4.585938,-10.68772,0.04788403,4.841076,0.01065264,-0.05219796,0.03834952,302,-1023,61
2499.234,4.589844,-10.4483,-0.1819593,4.855441,-0.004261058,-0.04367584,0.09267801,246,-1046,65
2499.238,4.59375,-10.23282,-0.4405331,4.745308,-0.01278317,-0.04048005,0.1512675,315,-973,-2
2499.242,4.597656,-9.868899,-0.7038953,4.639963,-0.02024002,-0.03834952,0.2247708,304,-984,31
2499.246,4.601562,-9.639056,-0.9576807,4.596867,-0.0181095,-0.03941478,0.2801645,317,-1019,1
2499.25,4.605469,-9.284714,-1.115698,4.596867,-0.01704423,-0.03728426,0.3312972,267,-1045,88
2499.254,4.609375,-9.083601,-1.268927,4.453215,-0.008522115,-0.04367584,0.3802994,272,-982,62
2499.258,4.613281,-8.676587,-1.393425,4.424485,0.008522115,-0.05326322,0.4410195,265,-999,18
2499.262,4.617188,-8.384494,-1.513135,4.323928,0.02237055,-0.05752428,0.4825648,339,-1016,21
2499.266,4.621094,-8.135497,-1.537077,4.290409,0.04580637,-0.06072007,0.5166533,302,-1051,60
2499.27,4.625,-7.843405,-1.565808,4.209007,0.06711166,-0.06711166,0.5496764,273,-1001,40
2499.273,4.628906,-7.5561,-1.637634,4.232949,0.08415589,-0.06817692,0.5763081,244,-982,-9
2499.277,4.632812,-7.412448,-1.484405,4.127604,0.1075917,-0.06498113,0.5997439,330,-993,13
2499.281,4.636719,-7.302315,-1.393425,4.046201,0.1182444,-0.0660464,0.6125271,289,-1036,48
2499.285,4.640625,-7.235277,-1.264138,3.940856,0.1278317,-0.0660464,0.6231797,319,-1020,43
2499.289,4.644531,-7.201759,-1.177947,3.878607,0.1352886,-0.07243798,0.6306365,230,-971,50
2499.293,4.648438,-7.192182,-0.9097966,3.77805,0.144876,-0.07030745,0.6348976,263,-991,9
2499.297,4.652344,-7.364564,-0.7565677,3.744531,0.1427454,-0.07989483,0.6359629,288,-1029,29
2499.301,4.65625,-7.340622,-0.6033388,3.711013,0.1320928,-0.08628642,0.6317018,261,-1016,49
2499.305,4.660156,-7.398083,-0.4884171,3.648763,0.128897,-0.09054748,0.624245,227,-1023,87
2499.309,4.664062,-7.52737,-0.3112462,3.600879,0.1203749,-0.09374327,0.6125271,236,-967,61
2499.312,4.667969,-7.627926,-0.1963245,3.62961,0.1075917,-0.09906959,0.6072007,274,-987,-3
2499.316,4.671875,-7.694964,-0.1101333,3.605668,0.09374327,-0.1097222,0.6008091,301,-998,37
2499.32,4.675781,-7.795521,-0.02873042,3.562572,0.07669904,-0.1161138,0.5901565,264,-998,89
2499.324,4.679688,-7.881712,0.04788403,3.572149,0.05539375,-0.1171791,0.5773733,278,-969,32
2499.328,4.683594,-7.8865,0.07661445,3.533842,0.04367584,-0.1118528,0.5741775,235,-975,55
2499.332,4.6875,-7.982268,0.06703765,3.438074,0.03089267,-0.108657,0.5645902,291,-996,40
2499.336,4.691406,-7.958326,0.1149217,3.466804,0.01597897,-0.108657,0.5539375,274,-1015,40
2499.34,4.695312,-7.94875,0.1628057,3.32794,0.001065264,-0.1043959,0.5422196,256,-1052,46
2499.344,4.699219,-7.958326,0.1819593,3.29921,-0.01278317,-0.1001349,0.5294364,226,-980,73
2499.348,4.703125,-7.97748,0.2059013,3.246537,-0.02343582,-0.09906959,0.5166533,233,-990,-9
2499.352,4.707031,-7.872135,0.1292869,3.098097,-0.03195793,-0.09480853,0.5049353,346,-1049,9
2499.355,4.710938,-7.929596,0.02873042,2.992752,-0.04261058,-0.08948221,0.4825648,277,-992,63
2499.359,4.714844,-7.876923,0.009576807,2.96881,-0.0479369,-0.08735168,0.4697816,259,-1048,70
2499.363,4.71875,-7.915231,-0.07182605,2.94008,-0.05113269,-0.08948221,0.4569984,249,-977,24
2499.367,4.722656,-7.867347,-0.2154781,2.839523,-0.05645902,-0.08628642,0.4442153,300,-983,32
2499.371,4.726562,-7.824251,-0.296881,2.853888,-0.05965481,-0.08948221,0.4293016,313,-997,12
2499.375,4.730469,-7.905654,-0.3782839,2.825158,-0.06391587,-0.09054748,0.4133226,226,-1010,77
2499.379,4.734375,-7.852981,-0.4644751,2.786851,-0.06817692,-0.09800433,0.4016047,254,-959,68
2499.383,4.738281,-7.910442,-0.5315128,2.825158,-0.06711166,-0.1033307,0.386691,291,-985,24
2499.387,4.742188,-7.910442,-0.6655881,2.791639,-0.06817692,-0.1054612,0.3749731,308,-1044,-1
2499.391,4.746094,-7.905654,-0.7182605,2.810793,-0.06711166,-0.1043959,0.3579289,295,-1046,64
2499.395,4.75,-7.94875,-0.6895301,2.767697,-0.06498113,-0.1001349,0.3451457,249,-1050,58
2499.398,4.753906,-7.97748,-0.8283938,2.705448,-0.05858954,-0.09800433,0.3312972,239,-963,24
2499.402,4.757812,-7.972692,-0.8140286,2.786851,-0.05326322,-0.09480853,0.3174488,289,-979,-8
2499.406,4.761719,-8.010999,-0.866701,2.691083,-0.04580637,-0.09374327,0.2950782,276,-1023,-6
2499.41,4.765625,-8.001422,-0.8954314,2.657564,-0.03728426,-0.09161274,0.2790993,288,-1044,80
2499.414,4.769531,-8.030152,-0.9193734,2.624045,-0.03408846,-0.08522115,0.2641856,245,-1001,26
2499.418,4.773438,-8.087613,-0.914585,2.542642,-0.02876214,-0.07989483,0.2503371,246,-979,47
2499.422,4.777344,-8.015787,-0.9289502,2.499547,-0.02450108,-0.07456851,0.2279666,318,-957,41
2499.426,4.78125,-8.082825,-0.8714894,2.470816,-0.01597897,-0.06924219,0.2141182,274,-990,54
2499.43,4.785156,-8.145074,-0.866701,2.42772,-0.01171791,-0.06711166,0.201335,264,-1049,53
2499.434,4.789062,-8.169016,-0.8571242,2.39899,-0.007456851,-0.0660464,0.1874865,262,-991,79
2499.438,4.792969,-8.178593,-0.7661445,2.30801,-0.008522115,-0.05539375,0.1715076,307,-949,47
2499.441,4.796875,-8.298303,-0.7038953,2.27928,-0.01065264,-0.04900216,0.1629855,305,-1047,-9
2499.445,4.800781,-8.384494,-0.6655881,2.274492,-0.008522115,-0.04048005,0.1544633,273,-1023,60
2499.449,4.804688,-8.418013,-0.6081272,2.212242,-0.01171791,-0.02769688,0.1523328,247,-985,75
2499.453,4.808594,-8.489839,-0.521936,2.1883,-0.0181095,-0.004261058,0.149137,213,-990,11
2499.457,4.8125,-8.528146,-0.4118027,2.054225,-0.02769688,0.01597897,0.149137,312,-959,11
2499.461,4.816406,-8.57603,-0.3351882,1.977611,-0.03621899,0.03408846,0.1512675,310,-1033,83
2499.465,4.820312,-8.604761,-0.1675941,1.944092,-0.0479369,0.05113269,0.1533981,243,-1002,22
2499.469,4.824219,-8.561665,-0.009576807,1.944092,-0.06072007,0.06498113,0.1597897,228,-972,39
2499.473,4.828125,-8.614338,0.1915361,1.939303,-0.07989483,0.07882957,0.1661813,240,-1007,-8
2499.477,4.832031,-8.628703,0.3974375,1.94888,-0.09800433,0.08841695,0.1704423,283,-1021,50
2499.48,4.835938,-8.633491,0.4692635,2.011129,-0.1193096,0.09693906,0.1789644,280,-1020,42
2499.484,4.839844,-8.820239,0.617704,2.097321,-0.1416802,0.108657,0.1842907,243,-1015,11
2499.488,4.84375,-8.868123,0.8331822,2.178724,-0.1725728,0.1171791,0.1938781,244,-954,21
2499.492,4.847656,-8.959103,0.9097966,2.193089,-0.2002697,0.1214401,0.1981392,335,-980,26
2499.496,4.851562,-9.136274,1.106121,2.231396,-0.2247708,0.1214401,0.2034655,304,-1025,-5
2499.5,4.855469,-9.255984,1.25935,2.27928,-0.2503371,0.1214401,0.2077266,229,-1028,38
2499.504,4.859375,-9.370905,1.326388,2.384625,-0.2844256,0.1225054,0.2130529,243,-984,68
2499.508,4.863281,-9.47625,1.355118,2.422932,-0.3067962,0.1320928,0.2162487,260,-982,-25
2499.512,4.867188,-9.667786,1.450886,2.494758,-0.334493,0.1352886,0.2205097,286,-1027,9
2499.516,4.871094,-9.782708,1.407791,2.485181,-0.3600594,0.1416802,0.221575,286,-1064,72
2499.52,4.875,-9.983821,1.383849,2.571373,-0.386691,0.1406149,0.2258361,251,-1007,80
2499.523,4.878906,-10.1993,1.273715,2.533065,-0.406931,0.1352886,0.2237055,259,-940,-1
2499.527,4.882812,-10.29507,1.115698,2.533065,-0.4239752,0.1299623,0.2247708,278,-978,27
2499.531,4.886719,-10.44351,0.9385271,2.5187,-0.4410195,0.1225054,0.2258361,293,-1033,21
2499.535,4.890625,-10.68293,0.6703765,2.389413,-0.4559332,0.1118528,0.2300971,336,-1028,45
2499.539,4.894531,-10.75475,0.4644751,2.394202,-0.46339,0.1054612,0.2258361,236,-973,41
2499.543,4.898438,-10.92714,0.2873042,2.317587,-0.4655206,0.09800433,0.2269013,249,-984,23
2499.547,4.902344,-11.066,0.1101333,2.264915,-0.46339,0.0958738,0.2300971,297,-945,12
2499.551,4.90625,-11.39161,-0.04788403,2.169147,-0.4527374,0.08628642,0.2332929,318,-1054,66
2499.555,4.910156,-11.56878,-0.3543418,2.193089,-0.4399542,0.07137272,0.2386192,232,-1000,83
2499.559,4.914062,-11.78426,-0.4836287,2.130839,-0.4207795,0.05752428,0.241815,240,-977,78
2499.562,4.917969,-11.94707,-0.6895301,2.059013,-0.40267,0.03941478,0.2492719,299,-990,15
2499.566,4.921875,-12.19127,-0.8236054,2.035071,-0.3888215,0.02769688,0.2545982,276,-1013,30
2499.57,4.925781,-12.39239,-1.010353,1.977611,-0.3685815,0.002130529,0.2641856,323,-1028,62
2499.574,4.929688,-12.51689,-1.101333,1.972822,-0.3472762,-0.0181095,0.2673814,256,-987,70
2499.578,4.933594,-12.74673,-1.11091,1.910573,-0.3291667,-0.03834952,0.273773,229,-949,13
2499.582,4.9375,-12.82334,-1.096544,1.877054,-0.3153183,-0.05752428,0.2844256,305,-977,18
2499.586,4.941406,-13.0484,-1.043872,1.900996,-0.2961435,-0.09054748,0.3014698,310,-1011,49
2499.59,4.945312,-13.23515,-0.8762778,1.900996,-0.2876214,-0.1171791,0.3153183,274,-1021,35
2499.594,4.949219,-13.34049,-0.7230489,1.805228,-0.2769688,-0.1438107,0.3312972,228,-952,73
2499.598,4.953125,-13.44584,-0.4453215,1.728614,-0.2673814,-0.1629855,0.3483415,274,-981,16
2499.602,4.957031,-13.52245,-0.1197101,1.699883,-0.2599245,-0.1842907,0.3739078,270,-1024,30
2499.605,4.960938,-13.44584,0.1197101,1.867477,-0.2599245,-0.2130529,0.3920173,316,-1027,58
2499.609,4.964844,-13.35007,0.3112462,2.111686,-0.257794,-0.2290319,0.406931,276,-1024,59
2499.613,4.96875,-13.25909,0.5315128,2.078167,-0.2545982,-0.2162487,0.42291,249,-953,26
2499.617,4.972656,-13.1298,0.7422025,2.700659,-0.2609898,-0.2119876,0.4495416,283,-992,15
2499.621,4.976562,-13.0053,0.6655881,3.251326,-0.2620551,-0.2066613,0.4687164,295,-1027,39
2499.625,4.980469,-12.75631,0.641646,3.907337,-0.2364887,-0.1768339,0.4868258,208,-1029,55
2499.629,4.984375,-12.53125,0.5554548,4.750096,-0.1864213,-0.112918,0.5060006,249,-980,48
2499.633,4.988281,-12.37802,0.272939,5.746084,-0.09161274,-0.01171791,0.5432849,243,-980,2
2499.637,4.992188,-12.44506,-0.02873042,5.473145,-0.02024002,0.05539375,0.5869607,299,-994,-1
2499.641,4.996094,-12.42112,-0.3256114,5.501875,0.04580637,0.08628642,0.6274408,308,-1047,77
2499.645,5,-12.09551,-0.593762,5.568913,0.0958738,0.1118528,0.6466155,255,-996,35
2499.648,5.003906,-11.33894,-1.163582,5.966351,0.1406149,0.1715076,0.6498113,232,-989,35
2499.652,5.007812,-10.76433,-1.541866,6.277597,0.1789644,0.2300971,0.6338323,259,-1005,2
2499.656,5.011719,-10.47224,-1.80044,6.445191,0.2300971,0.2695119,0.6040049,293,-1025,33
2499.66,5.015625,-10.39084,-2.049437,6.603208,0.2844256,0.2716424,0.5816344,294,-998,100
2499.664,5.019531,-10.60152,-2.322376,6.50744,0.3398194,0.2364887,0.5709817,205,-985,51
2499.668,5.023438,-10.85531,-2.537854,6.526594,0.3941478,0.1821602,0.5752428,261,-981,31
2499.672,5.027344,-11.08994,-2.547431,6.646304,0.4207795,0.1459412,0.572047,302,-1017,0
2499.676,5.03125,-11.15698,-2.274492,6.74686,0.4346279,0.1257012,0.5581986,282,-1008,62
2499.68,5.035156,-11.12825,-1.810016,6.856994,0.4527374,0.1182444,0.5390238,257,-1003,71
2499.684,5.039062,-10.96544,-1.283292,6.732495,0.4910869,0.1012001,0.5006743,280,-1003,4
2499.688,5.042969,-10.76912,-1.072602,6.512229,0.5145227,0.07563377,0.4623248,254,-948,25
2499.691,5.046875,-10.4483,-1.082179,6.363788,0.5166533,0.04261058,0.4218447,274,-1000,24
2499.695,5.050781,-10.03649,-0.9768343,6.291962,0.4932174,0.006391587,0.3813647,268,-1005,39
2499.699,5.054688,-9.32781,-0.5027823,6.26802,0.4314321,-0.0298274,0.3472762,281,-988,78
2499.703,5.058594,-8.815451,-0.1053449,6.210559,0.3802994,-0.03941478,0.3259709,260,-956,16
2499.707,5.0625,-8.259996,0.4022259,6.215348,0.3291667,-0.03941478,0.3057309,310,-943,41
2499.711,5.066406,-7.656657,0.7469909,6.392518,0.2897519,-0.04154531,0.2759035,294,-1043,73
2499.715,5.070312,-6.924031,1.249773,6.564901,0.2332929,-0.0479369,0.2364887,282,-1001,49
2499.719,5.074219,-6.47871,1.489193,6.406884,0.1928129,-0.04580637,0.2151834,255,-965,58
2499.723,5.078125,-6.14831,1.733402,6.263232,0.1533981,-0.04261058,0.1992044,255,-990,36
2499.727,5.082031,-5.856217,1.838747,6.406884,0.1139833,-0.0479369,0.1885518,287,-1002,62
2499.73,5.085938,-5.453991,1.766921,6.26802,0.07456851,-0.04687164,0.1768339,290,-1020,75
2499.734,5.089844,-5.176264,1.661576,6.100426,0.04580637,-0.03941478,0.1757686,215,-995,54
