t_native_s,t_opt_s,ax,ay,az,gx,gy,gz,mx,my,mz
2632.600000,0.000000,0.000000,0.000000,9.810000,0.000000,0.000000,0.000000,18.385067,-15.426903,-41.569219
2632.610000,0.010000,0.000000,0.000000,9.810000,0.000000,0.000000,0.000000,18.385067,-15.426903,-41.569219
2632.620000,0.020000,0.000000,0.000000,9.810000,0.000000,0.000000,0.000000,18.385067,-15.426903,-41.569219
2632.630000,0.030000,0.000000,0.000000,9.810000,0.000000,0.000000,0.000000,18.385067,-15.426903,-41.569219
2632.640000,0.040000,0.000000,0.000000,9.810000,0.000000,0.000000,0.000000,18.385067,-15.426903,-41.569219
2632.650000,0.050000,0.000000,0.000000,9.810000,0.000000,0.000000,0.000000,18.385067,-15.426903,-41.569219
2632.660000,0.060000,0.000000,0.000000,9.810000,0.000000,0.000000,0.000000,18.385067,-15.426903,-41.569219
2632.670000,0.070000,0.000000,0.000000,9.810000,0.000000,0.000000,0.000000,18.385067,-15.426903,-41.569219
2632.680000,0.080000,0.000000,0.000000,9.810000,0.000000,0.000000,0.000000,18.385067,-15.426903,-41.569219
2632.690000,0.090000,0.000000,0.000000,9.810000,0.000000,0.000000,0.000000,18.385067,-15.426903,-41.569219
2632.700000,0.100000,0.000000,0.000000,9.810000,0.000000,0.000000,0.000000,18.385067,-15.426903,-41.569219
2632.710000,0.110000,0.000000,0.000000,9.810000,0.000000,0.000000,0.000000,18.385067,-15.426903,-41.569219
2632.720000,0.120000,0.000000,0.000000,9.810000,0.000000,0.000000,0.000000,18.385067,-15.426903,-41.569219
2632.730000,0.130000,0.000000,0.000000,9.810000,0.000000,0.000000,0.000000,18.385067,-15.426903,-41.569219
2632.740000,0.140000,0.000000,0.000000,9.810000,0.000000,0.000000,0.000000,18.385067,-15.426903,-41.569219
2632.750000,0.150000,0.000000,0.000000,9.810000,0.000000,0.000000,0.000000,18.385067,-15.426903,-41.569219
2632.760000,0.160000,0.000000,0.000000,9.810000,0.000000,0.000000,0.000000,18.385067,-15.426903,-41.569219
2632.770000,0.170000,0.000000,0.000000,9.810000,0.000000,0.000000,0.000000,18.385067,-15.426903,-41.569219
2632.780000,0.180000,0.000000,0.000000,9.810000,0.000000,0.000000,0.000000,18.385067,-15.426903,-41.569219
2632.790000,0.190000,0.000000,0.000000,9.810000,0.000000,0.000000,0.000000,18.385067,-15.426903,-41.569219
2632.800000,0.200000,0.000000,0.000000,9.810000,0.000000,0.000000,0.000000,18.385067,-15.426903,-41.569219
2632.810000,0.210000,0.000000,0.000000,9.810000,0.000000,0.000000,0.000000,18.385067,-15.426903,-41.569219
2632.820000,0.220000,0.000000,0.000000,9.810000,0.000000,0.000000,0.000000,18.385067,-15.426903,-41.569219
2632.830000,0.230000,0.000000,0.000000,9.810000,0.000000,0.000000,0.000000,18.385067,-15.426903,-41.569219
2632.840000,0.240000,0.000000,0.000000,9.810000,0.000000,0.000000,0.000000,18.385067,-15.426903,-41.569219
2632.850000,0.250000,0.000000,0.000000,9.810000,0.000000,0.000000,0.000000,18.385067,-15.426903,-41.569219
2632.860000,0.260000,0.000000,0.000000,9.810000,0.000000,0.000000,0.000000,18.385067,-15.426903,-41.569219
2632.870000,0.270000,0.000000,0.000000,9.810000,0.000000,0.000000,0.000000,18.385067,-15.426903,-41.569219
2632.880000,0.280000,0.000000,0.000000,9.810000,0.000000,0.000000,0.000000,18.385067,-15.426903,-41.569219
2632.890000,0.290000,0.000000,0.000000,9.810000,0.000000,0.000000,0.000000,18.385067,-15.426903,-41.569219
2632.900000,0.300000,0.000000,0.000000,9.810000,0.000000,0.000000,0.000000,18.385067,-15.426903,-41.569219
2632.910000,0.310000,0.000000,0.000000,9.810000,0.000000,0.000000,0.000000,18.385067,-15.426903,-41.569219
2632.920000,0.320000,0.000000,0.000000,9.810000,0.000000,0.000000,0.000000,18.385067,-15.426903,-41.569219
2632.930000,0.330000,0.000000,0.000000,9.810000,0.000000,0.000000,0.000000,18.385067,-15.426903,-41.569219
2632.940000,0.340000,0.000000,0.000000,9.810000,0.000000,0.000000,0.000000,18.385067,-15.426903,-41.569219
2632.950000,0.350000,0.000000,0.000000,9.810000,0.000000,0.000000,0.000000,18.385067,-15.426903,-41.569219
2632.960000,0.360000,0.000000,0.000000,9.810000,0.000000,0.000000,0.000000,18.385067,-15.426903,-41.569219
2632.970000,0.370000,0.000000,0.000000,9.810000,0.000000,0.000000,0.000000,18.385067,-15.426903,-41.569219
2632.980000,0.380000,0.000000,0.000000,9.810000,0.000000,0.000000,0.000000,18.385067,-15.426903,-41.569219
2632.990000,0.390000,0.000000,0.000000,9.810000,0.000000,0.000000,0.000000,18.385067,-15.426903,-41.569219
2633.000000,0.400000,0.000000,0.000000,9.810000,0.000000,0.000000,0.000000,18.385067,-15.426903,-41.569219
2633.010000,0.410000,0.000000,0.000000,9.810000,0.000000,0.000000,0.000000,18.385067,-15.426903,-41.569219
2633.020000,0.420000,0.000000,0.000000,9.810000,0.000000,0.000000,0.000000,18.385067,-15.426903,-41.569219
2633.030000,0.430000,0.000000,0.000000,9.810000,0.000000,0.000000,0.000000,18.385067,-15.426903,-41.569219
2633.040000,0.440000,0.000000,0.000000,9.810000,0.000000,0.000000,0.000000,18.385067,-15.426903,-41.569219
2633.050000,0.450000,0.000000,0.000000,9.810000,0.000000,0.000000,0.000000,18.385067,-15.426903,-41.569219
2633.060000,0.460000,0.000000,0.000000,9.810000,0.000000,0.000000,0.000000,18.385067,-15.426903,-41.569219
2633.070000,0.470000,0.000000,0.000000,9.810000,0.000000,0.000000,0.000000,18.385067,-15.426903,-41.569219
2633.080000,0.480000,0.000000,0.000000,9.810000,0.000000,0.000000,0.000000,18.385067,-15.426903,-41.569219
2633.090000,0.490000,0.000000,0.000000,9.810000,0.000000,0.000000,0.000000,18.385067,-15.426903,-41.569219
2633.100000,0.500000,0.000000,0.000000,9.810000,0.000000,0.000000,0.000000,18.385067,-15.426903,-41.569219
2633.110000,0.510000,0.000000,0.000000,9.810000,0.000000,0.000000,0.000000,18.385067,-15.426903,-41.569219
2633.120000,0.520000,0.000000,0.000000,9.810000,0.000000,0.000000,0.000000,18.385067,-15.426903,-41.569219
2633.130000,0.530000,0.000000,0.000000,9.810000,0.000000,0.000000,0.000000,18.385067,-15.426903,-41.569219
2633.140000,0.540000,0.000000,0.000000,9.810000,0.000000,0.000000,0.000000,18.385067,-15.426903,-41.569219
2633.150000,0.550000,0.000000,0.000000,9.810000,0.000000,0.000000,0.000000,18.385067,-15.426903,-41.569219
2633.160000,0.560000,0.000000,0.000000,9.810000,0.000000,0.000000,0.000000,18.385067,-15.426903,-41.569219
2633.170000,0.570000,0.000000,0.000000,9.810000,0.000000,0.000000,0.000000,18.385067,-15.426903,-41.569219
2633.180000,0.580000,0.000000,0.000000,9.810000,0.000000,0.000000,0.000000,18.385067,-15.426903,-41.569219
2633.190000,0.590000,0.000000,0.000000,9.810000,0.000000,0.000000,0.000000,18.385067,-15.426903,-41.569219
2633.200000,0.600000,0.000000,0.000000,9.810000,0.000000,0.000000,0.000000,18.385067,-15.426903,-41.569219
2633.210000,0.610000,0.000000,0.000000,9.810000,0.000000,0.000000,0.000000,18.385067,-15.426903,-41.569219
2633.220000,0.620000,0.000000,0.000000,9.810000,0.000000,0.000000,0.000000,18.385067,-15.426903,-41.569219
2633.230000,0.630000,0.000000,0.000000,9.810000,0.000000,0.000000,0.000000,18.385067,-15.426903,-41.569219
2633.240000,0.640000,0.000000,0.000000,9.810000,0.000000,0.000000,0.000000,18.385067,-15.426903,-41.569219
2633.250000,0.650000,0.000000,0.000000,9.810000,0.000000,-0.000000,0.000000,18.385067,-15.426903,-41.569219
2633.260000,0.660000,0.000000,0.000000,9.810000,0.000000,-0.000000,0.000000,18.385067,-15.426903,-41.569219
2633.270000,0.670000,0.000000,0.000000,9.810000,0.000000,-0.000000,0.000000,18.385067,-15.426903,-41.569219
2633.280000,0.680000,0.000000,0.000000,9.810000,0.000000,-0.000000,0.000000,18.385067,-15.426903,-41.569219
2633.290000,0.690000,0.000000,0.000000,9.810000,0.000000,-0.000000,0.000000,18.385067,-15.426903,-41.569219
2633.300000,0.700000,0.000000,0.000000,9.810000,0.000000,-0.000000,0.000000,18.385067,-15.426903,-41.569219
2633.310000,0.710000,0.000000,0.000000,9.810000,0.000000,-0.000000,0.000000,18.385067,-15.426903,-41.569219
2633.320000,0.720000,0.000000,0.000000,9.810000,0.000000,-0.000000,0.000000,18.385067,-15.426903,-41.569219
2633.330000,0.730000,0.000000,0.000000,9.810000,0.000000,-0.000000,0.000000,18.385067,-15.426903,-41.569219
2633.340000,0.740000,0.000000,0.000000,9.810000,0.000000,-0.000000,0.000000,18.385067,-15.426903,-41.569219
2633.350000,0.750000,0.000000,0.000000,9.810000,0.000000,-0.000000,0.000000,18.385067,-15.426903,-41.569219
2633.360000,0.760000,0.000000,0.000000,9.810000,0.000000,-0.000000,0.000000,18.385067,-15.426903,-41.569219
2633.370000,0.770000,0.000000,0.000000,9.810000,0.000000,-0.000000,0.000000,18.385067,-15.426903,-41.569219
2633.380000,0.780000,0.000000,0.000000,9.810000,0.000000,-0.000000,0.000000,18.385067,-15.426903,-41.569219
2633.390000,0.790000,0.000000,0.000000,9.810000,0.000000,-0.000000,0.000000,18.385067,-15.426903,-41.569219
2633.400000,0.800000,0.000000,0.000000,9.810000,0.000000,-0.000000,0.000000,18.385067,-15.426903,-41.569219
2633.410000,0.810000,0.000000,0.000000,9.810000,0.000000,-0.000000,0.000000,18.385067,-15.426903,-41.569219
2633.420000,0.820000,0.000000,0.000000,9.810000,0.000000,-0.000000,0.000000,18.385067,-15.426903,-41.569219
2633.430000,0.830000,0.000000,0.000000,9.810000,0.000000,-0.000000,0.000000,18.385067,-15.426903,-41.569219
2633.440000,0.840000,0.000000,0.000000,9.810000,0.000000,-0.000000,0.000000,18.385067,-15.426903,-41.569219
2633.450000,0.850000,0.000000,0.000000,9.810000,0.000000,-0.000000,0.000000,18.385067,-15.426903,-41.569219
2633.460000,0.860000,0.000000,0.000000,9.810000,0.000000,-0.000000,0.000000,18.385067,-15.426903,-41.569219
2633.470000,0.870000,0.000000,0.000000,9.810000,0.000000,-0.000000,0.000000,18.385067,-15.426903,-41.569219
2633.480000,0.880000,0.000000,0.000000,9.810000,0.000000,-0.000000,0.000000,18.385067,-15.426903,-41.569219
2633.490000,0.890000,0.000000,0.000000,9.810000,0.000000,-0.000000,0.000000,18.385067,-15.426903,-41.569219
2633.500000,0.900000,0.000000,0.000000,9.810000,0.000000,-0.000000,0.000000,18.385067,-15.426903,-41.569219
2633.510000,0.910000,0.000000,0.000000,9.810000,0.000000,-0.000000,0.000000,18.385067,-15.426903,-41.569219
2633.520000,0.920000,0.000000,0.000000,9.810000,0.000000,-0.000000,0.000000,18.385067,-15.426903,-41.569219
2633.530000,0.930000,0.000000,0.000000,9.810000,0.000000,-0.000000,0.000000,18.385067,-15.426903,-41.569219
2633.540000,0.940000,0.000000,0.000000,9.810000,0.000000,-0.000000,0.000000,18.385067,-15.426903,-41.569219
2633.550000,0.950000,0.000000,0.000000,9.810000,0.000000,-0.000000,0.000000,18.385067,-15.426903,-41.569219
2633.560000,0.960000,0.000000,0.000000,9.810000,0.000000,-0.000000,0.000000,18.385067,-15.426903,-41.569219
2633.570000,0.970000,0.000000,0.000000,9.810000,0.000000,-0.000000,0.000000,18.385067,-15.426903,-41.569219
2633.580000,0.980000,0.000000,0.000000,9.810000,0.000000,-0.000000,0.000000,18.385067,-15.426903,-41.569219
2633.590000,0.990000,0.000000,0.000000,9.810000,0.000000,-0.000000,0.000000,18.385067,-15.426903,-41.569219
2633.600000,1.000000,0.000000,0.000000,9.810000,0.000000,-0.000000,0.000000,18.385067,-15.426903,-41.569219
2633.610000,1.010000,0.000000,0.000000,9.810000,0.000000,-0.000000,0.000000,18.385067,-15.426903,-41.569219
2633.620000,1.020000,0.000000,0.000000,9.810000,0.000000,-0.000000,0.000000,18.385067,-15.426903,-41.569219
2633.630000,1.030000,0.000000,0.000000,9.810000,0.000000,-0.000000,0.000000,18.385067,-15.426903,-41.569219
2633.640000,1.040000,0.000000,0.000000,9.810000,0.000000,-0.000000,0.000000,18.385067,-15.426903,-41.569219
2633.650000,1.050000,0.000000,0.000000,9.810000,0.000000,-0.000000,0.000000,18.385067,-15.426903,-41.569219
2633.660000,1.060000,0.000000,0.000000,9.810000,0.000000,-0.000000,0.000000,18.385067,-15.426903,-41.569219
2633.670000,1.070000,0.000000,0.000000,9.810000,0.000000,-0.000000,0.000000,18.385067,-15.426903,-41.569219
2633.680000,1.080000,0.000000,0.000000,9.810000,0.000000,-0.000000,0.000000,18.385067,-15.426903,-41.569219
2633.690000,1.090000,0.000000,0.000000,9.810000,0.000000,-0.000000,0.000000,18.385067,-15.426903,-41.569219
2633.700000,1.100000,0.000000,0.000000,9.810000,0.000000,-0.000000,0.000000,18.385067,-15.426903,-41.569219
2633.710000,1.110000,0.000000,0.000000,9.810000,0.000000,-0.000000,0.000000,18.385067,-15.426903,-41.569219
2633.720000,1.120000,0.000000,0.000000,9.810000,0.000000,-0.000000,0.000000,18.385067,-15.426903,-41.569219
2633.730000,1.130000,0.000000,0.000000,9.810000,0.000000,-0.000000,0.000000,18.385067,-15.426903,-41.569219
2633.740000,1.140000,0.000000,0.000000,9.810000,0.000000,-0.000000,0.000000,18.385067,-15.426903,-41.569219
2633.750000,1.150000,0.000000,0.000000,9.810000,0.000000,-0.000000,0.000000,18.385067,-15.426903,-41.569219
2633.760000,1.160000,0.000000,0.000000,9.810000,0.000000,-0.000000,0.000000,18.385067,-15.426903,-41.569219
2633.770000,1.170000,0.000000,0.000000,9.810000,0.000000,-0.000000,0.000000,18.385067,-15.426903,-41.569219
2633.780000,1.180000,0.000000,0.000000,9.810000,0.000000,-0.000000,0.000000,18.385067,-15.426903,-41.569219
2633.790000,1.190000,0.000000,0.000000,9.810000,0.000000,-0.000000,0.000000,18.385067,-15.426903,-41.569219
2633.800000,1.200000,0.000000,0.000000,9.810000,0.000000,-0.000000,0.000000,18.385067,-15.426903,-41.569219
2633.810000,1.210000,0.000000,0.000000,9.810000,0.000000,-0.000000,0.000000,18.385067,-15.426903,-41.569219
2633.820000,1.220000,0.000000,0.000000,9.810000,0.000000,-0.000000,0.000000,18.385067,-15.426903,-41.569219
2633.830000,1.230000,0.000000,0.000000,9.810000,0.000000,-0.000000,0.000000,18.385067,-15.426903,-41.569219
2633.840000,1.240000,0.000000,0.000000,9.810000,0.000000,-0.000000,0.000000,18.385067,-15.426903,-41.569219
2633.850000,1.250000,0.000000,0.000000,9.810000,0.000000,-0.000000,0.000000,18.385067,-15.426903,-41.569219
2633.860000,1.260000,0.000000,0.000000,9.810000,0.000000,-0.000000,0.000000,18.385067,-15.426903,-41.569219
2633.870000,1.270000,0.000000,0.000000,9.810000,0.000000,-0.000000,0.000000,18.385067,-15.426903,-41.569219
2633.880000,1.280000,0.000000,0.000000,9.810000,0.000000,-0.000000,0.000000,18.385067,-15.426903,-41.569219
2633.890000,1.290000,0.000000,0.000000,9.810000,0.000000,-0.000000,0.000000,18.385067,-15.426903,-41.569219
2633.900000,1.300000,0.000000,0.000000,9.810000,0.000000,-0.000000,0.000000,18.385067,-15.426903,-41.569219
2633.910000,1.310000,0.000000,0.000000,9.810000,0.000000,-0.000000,0.000000,18.385067,-15.426903,-41.569219
2633.920000,1.320000,0.000000,0.000000,9.810000,0.000000,-0.000000,0.000000,18.385067,-15.426903,-41.569219
2633.930000,1.330000,0.000000,0.000000,9.810000,0.000000,-0.000000,0.000000,18.385067,-15.426903,-41.569219
2633.940000,1.340000,0.000000,0.000000,9.810000,0.000000,-0.000000,0.000000,18.385067,-15.426903,-41.569219
2633.950000,1.350000,0.000000,0.000000,9.810000,0.000000,-0.000000,0.000000,18.385067,-15.426903,-41.569219
2633.960000,1.360000,0.000000,0.000000,9.810000,0.000000,-0.000001,-0.000000,18.385067,-15.426903,-41.569219
2633.970000,1.370000,0.000000,0.000000,9.810000,0.000000,-0.000015,-0.000000,18.385066,-15.426903,-41.569220
2633.980000,1.380000,0.000003,0.000000,9.810000,0.000000,-0.000145,0.000000,18.385054,-15.426903,-41.569225
2633.990000,1.390000,0.000029,0.000000,9.810000,0.000000,-0.001150,0.000000,18.384945,-15.426903,-41.569273
2634.000000,1.400000,0.000228,0.000000,9.810000,0.000000,-0.007315,-0.000000,18.384098,-15.426903,-41.569648
2634.010000,1.410000,0.001464,0.000000,9.810000,0.000000,-0.037241,0.000000,18.378863,-15.426903,-41.571963
2634.020000,1.420000,0.007535,0.000000,9.809997,0.000000,-0.150802,0.000000,18.353132,-15.426903,-41.583329
2634.030000,1.430000,0.031051,0.000000,9.809951,0.000000,-0.481228,-0.000000,18.253397,-15.426903,-41.627205
2634.040000,1.440000,0.101951,0.000000,9.809470,0.000000,-1.190886,-0.000000,17.952064,-15.426903,-41.758042
2634.050000,1.450000,0.264679,0.000000,9.806429,0.000000,-2.215675,-0.000000,17.256813,-15.426903,-42.050126
2634.060000,1.460000,0.536443,0.000000,9.795322,0.000000,-2.880997,0.000000,16.084418,-15.426903,-42.512377
2634.070000,1.470000,0.829051,0.000000,9.774905,0.000000,-2.000090,0.000000,14.806245,-15.426903,-42.974246
2634.080000,1.480000,0.927785,0.000000,9.766029,0.000000,0.976246,-0.000000,14.371233,-15.426903,-43.121669
2634.090000,1.490000,0.638011,0.000000,9.789231,0.000000,4.653184,-0.000000,15.642616,-15.426903,-42.676917
2634.100000,1.500000,0.015758,0.000000,9.809987,0.000000,6.307709,0.000000,18.318269,-15.426903,-41.598698
2634.110000,1.510000,-0.599560,0.000000,9.791661,0.000000,4.513615,0.000000,20.891292,-15.426903,-40.367866
2634.120000,1.520000,-0.869110,0.000000,9.771425,0.000000,0.709464,-0.000000,21.995570,-15.426903,-39.776948
2634.130000,1.530000,-0.738462,0.000000,9.782166,0.000000,-2.370682,-0.000000,21.462084,-15.426903,-40.067314
2634.140000,1.540000,-0.404940,0.000000,9.801639,0.000000,-3.324044,-0.000000,20.085303,-15.426903,-40.774885
2634.150000,1.550000,-0.086862,0.000000,9.809615,0.000000,-2.694722,0.000000,18.752417,-15.426903,-41.404801
2634.160000,1.560000,0.123718,0.000000,9.809220,0.000000,-1.666897,0.000000,17.859358,-15.426903,-41.797775
2634.170000,1.570000,0.240177,0.000000,9.807059,0.000000,-0.916369,-0.000000,17.361821,-15.426903,-42.006878
2634.180000,1.580000,0.303467,0.000000,9.805305,0.000000,-0.513634,0.000000,17.090345,-15.426903,-42.118058
2634.190000,1.590000,0.340908,0.000000,9.804075,0.000000,-0.307167,-0.000000,16.929387,-15.426903,-42.183012
2634.200000,1.600000,0.363699,0.000000,9.803256,0.000000,-0.174194,-0.000000,16.831278,-15.426903,-42.222254
2634.210000,1.610000,0.375062,0.000000,9.802828,0.000000,-0.058812,0.000000,16.782324,-15.426903,-42.241736
2634.220000,1.620000,0.375230,0.000000,9.802821,0.000000,0.059624,0.000000,16.781602,-15.426903,-42.242023
2634.230000,1.630000,0.363372,0.000000,9.803268,0.000000,0.183482,-0.000000,16.832685,-15.426903,-42.221693
2634.240000,1.640000,0.339254,0.000000,9.804132,0.000000,0.298037,0.000000,16.936502,-15.426903,-42.180156
2634.250000,1.650000,0.304931,0.000000,9.805260,0.000000,0.379332,-0.000000,17.084057,-15.426903,-42.120609
2634.260000,1.660000,0.264865,0.000000,9.806424,0.000000,0.413932,0.000000,17.256018,-15.426903,-42.050452
2634.270000,1.670000,0.223747,0.000000,9.807448,0.000000,0.413189,0.000000,17.432170,-15.426903,-41.977734
2634.280000,1.680000,0.183818,0.000000,9.808278,0.000000,0.404548,-0.000000,17.602922,-15.426903,-41.906417
2634.290000,1.690000,0.144389,0.000000,9.808937,0.000000,0.406525,0.000000,17.771237,-15.426903,-41.835318
2634.300000,1.700000,0.104067,0.000000,9.809448,0.000000,0.413740,0.000000,17.943057,-15.426903,-41.761913
2634.310000,1.710000,0.063218,0.000000,9.809796,0.000000,0.407672,-0.000000,18.116805,-15.426903,-41.686833
2634.320000,1.720000,0.024083,0.000000,9.809970,0.000000,0.379661,0.000000,18.282961,-15.426903,-41.614228
2634.330000,1.730000,-0.011272,0.000000,9.809994,0.000000,0.340024,-0.000000,18.432817,-15.426903,-41.548068
2634.340000,1.740000,-0.042630,0.000000,9.809907,0.000000,0.305107,-0.000000,18.565533,-15.426903,-41.488934
2634.350000,1.750000,-0.071133,0.000000,9.809742,0.000000,0.279744,0.000000,18.686005,-15.426903,-41.434815
2634.360000,1.760000,-0.097514,0.000000,9.809515,0.000000,0.254735,-0.000000,18.797368,-15.426903,-41.384413
2634.370000,1.770000,-0.121110,0.000000,9.809252,0.000000,0.218962,-0.000000,18.896860,-15.426903,-41.339078
2634.380000,1.780000,-0.140471,0.000000,9.808994,0.000000,0.171253,0.000000,18.978419,-15.426903,-41.301698
2634.390000,1.790000,-0.154706,0.000000,9.808780,0.000000,0.122108,0.000000,19.038338,-15.426903,-41.274113
2634.400000,1.800000,-0.164426,0.000000,9.808622,0.000000,0.087655,-0.000000,19.079228,-15.426903,-41.255227
2634.410000,1.810000,-0.171902,0.000000,9.808494,0.000000,0.081626,-0.000000,19.110666,-15.426903,-41.240673
2634.420000,1.820000,-0.180439,0.000000,9.808340,0.000000,0.107356,0.000000,19.146553,-15.426903,-41.224025
2634.430000,1.830000,-0.192961,0.000000,9.808102,0.000000,0.152909,0.000000,19.199171,-15.426903,-41.199545
2634.440000,1.840000,-0.210433,0.000000,9.807743,0.000000,0.196872,0.000000,19.272533,-15.426903,-41.165278
2634.450000,1.850000,-0.231579,0.000000,9.807266,0.000000,0.225386,-0.000000,19.361242,-15.426903,-41.123630
2634.460000,1.860000,-0.254642,0.000000,9.806695,0.000000,0.245021,-0.000000,19.457899,-15.426903,-41.077985
2634.470000,1.870000,-0.279635,0.000000,9.806014,0.000000,0.275280,-0.000000,19.562532,-15.426903,-41.028259
2634.480000,1.880000,-0.308629,0.000000,9.805144,0.000000,0.326434,0.000000,19.683762,-15.426903,-40.970235
2634.490000,1.890000,-0.343650,0.000000,9.803979,0.000000,0.387423,0.000000,19.829974,-15.426903,-40.899667
2634.500000,1.900000,-0.384594,0.000000,9.802458,0.000000,0.439934,-0.000000,20.000625,-15.426903,-40.816488
2634.510000,1.910000,-0.429897,0.000000,9.800576,0.000000,0.485174,-0.000000,20.189066,-15.426903,-40.723608
2634.520000,1.920000,-0.479693,0.000000,9.798265,0.000000,0.551366,0.000000,20.395740,-15.426903,-40.620493
2634.530000,1.930000,-0.537944,0.000000,9.795239,0.000000,0.667430,-0.000000,20.636904,-15.426903,-40.498505
2634.540000,1.940000,-0.610440,0.000000,9.790989,0.000000,0.828108,-0.000000,20.936138,-15.426903,-40.344625
2634.550000,1.950000,-0.700095,0.000000,9.784987,0.000000,0.992584,0.000000,21.304794,-15.426903,-40.151170
2634.560000,1.960000,-0.804678,0.000000,9.776942,0.000000,1.123998,-0.000000,21.732882,-15.426903,-39.921079
2634.570000,1.970000,-0.919870,0.000000,9.766777,0.000000,1.226838,0.000000,22.201951,-15.426903,-39.662124
2634.580000,1.980000,-1.044312,0.000000,9.754256,0.000000,1.338745,0.000000,22.705800,-15.426903,-39.375847
2634.590000,1.990000,-1.181022,0.000000,9.738649,0.000000,1.486977,0.000000,23.255847,-15.426903,-39.053505
2634.600000,2.000000,-1.333906,0.000000,9.718889,0.000000,1.660946,-0.000000,23.866650,-15.426903,-38.683248
2634.610000,2.010000,-1.503833,0.000000,9.694049,0.000000,1.833182,-0.000000,24.540152,-15.426903,-38.259530
2634.620000,2.020000,-1.689279,0.000000,9.663459,0.000000,2.004895,0.000000,25.268640,-15.426903,-37.782357
2634.630000,2.030000,-1.891257,0.000000,9.625967,0.000000,2.220486,0.000000,26.054243,-15.426903,-37.244961
2634.640000,2.040000,-2.116660,0.000000,9.578928,0.000000,2.526024,-0.000000,26.921214,-15.426903,-36.623202
2634.650000,2.050000,-2.374998,0.000000,9.518166,0.000000,2.912902,0.000000,27.902030,-15.426903,-35.881575
2634.660000,2.060000,-2.670882,0.000000,9.439412,0.000000,3.315190,0.000000,29.008224,-15.426903,-34.993337
2634.670000,2.070000,-3.000522,0.000000,9.339859,0.000000,3.672840,-0.000000,30.218480,-15.426903,-33.953706
2634.680000,2.080000,-3.356598,0.000000,9.217882,0.000000,3.991438,0.000000,31.498728,-15.426903,-32.769510
2634.690000,2.090000,-3.736403,-0.000000,9.071883,0.000000,4.328503,-0.000000,32.830520,-15.426903,-31.435134
2634.700000,2.100000,-4.145485,0.000000,8.902731,0.000000,4.720667,-0.000000,34.214900,-15.426903,-29.922421
2634.710000,2.110000,-4.600508,0.000000,8.731555,0.000000,5.130046,-0.000000,35.648789,-15.426903,-28.198838
2634.720000,2.120000,-5.153019,0.000000,8.651102,0.000000,5.459597,0.000000,37.100842,-15.426903,-26.259059
2634.730000,2.130000,-5.951676,0.000000,8.906276,0.000000,5.611758,0.000000,38.510767,-15.426903,-24.143974
2634.740000,2.140000,-7.290546,0.000000,9.921335,0.000000,5.536081,-0.000000,39.809713,-15.426903,-21.936213
2634.750000,2.150000,-9.462633,0.000000,12.112715,0.000000,5.246670,-0.000000,40.943871,-15.426903,-19.738543
2634.760000,2.160000,-12.282820,0.000000,15.468709,0.000000,4.816445,0.000000,41.889215,-15.426903,-17.643820
2634.770000,2.170000,-14.626964,0.000000,19.280261,0.000000,4.342412,0.000000,42.653097,-15.426903,-15.707451
2634.780000,2.180000,-14.761530,-0.000000,22.516117,0.000000,3.883897,0.000000,43.262130,-15.426903,-13.942696
2634.790000,2.190000,-11.592829,0.000000,24.669916,0.000000,3.421323,-0.000000,43.743619,-15.426903,-12.349350
2634.800000,2.200000,-5.677038,0.000000,26.168145,0.000000,2.887716,0.000000,44.114342,-15.426903,-10.951505
2634.810000,2.210000,1.165511,-0.000000,27.834817,0.000000,2.252703,-0.000000,44.383598,-15.426903,-9.803413
2634.820000,2.220000,7.205703,0.000000,30.078393,0.000000,1.573218,-0.000000,44.562856,-15.426903,-8.953353
2634.830000,2.230000,11.710478,0.000000,32.672948,0.000000,0.954323,0.000000,44.670049,-15.426903,-8.402224
2634.840000,2.240000,14.805581,-0.000000,35.110296,0.000000,0.460923,0.000000,44.725620,-15.426903,-8.101210
2634.850000,2.250000,16.895586,-0.000000,36.973081,0.000000,0.073831,0.000000,44.745606,-15.426903,-7.990081
2634.860000,2.260000,18.303639,0.000000,38.051699,0.000000,-0.270490,0.000000,44.737534,-15.426903,-8.035158
2634.870000,2.270000,19.208989,0.000000,38.292042,0.000000,-0.609475,-0.000000,44.701727,-15.426903,-8.232028
2634.880000,2.280000,19.689011,0.000000,37.722995,0.000000,-0.930060,0.000000,44.636267,-15.426903,-8.579880
2634.890000,2.290000,19.761151,0.000000,36.414655,0.000000,-1.205217,0.000000,44.540874,-15.426903,-9.062074
2634.900000,2.300000,19.418349,-0.000000,34.455022,0.000000,-1.438148,-0.000000,44.416502,-15.426903,-9.653238
2634.910000,2.310000,18.657412,-0.000000,31.933728,0.000000,-1.662502,0.000000,44.261824,-15.426903,-10.339322
2634.920000,2.320000,17.486764,0.000000,28.936667,0.000000,-1.905661,-0.000000,44.071023,-15.426903,-11.124549
2634.930000,2.330000,15.915516,0.000000,25.551980,0.000000,-2.163095,0.000000,43.835683,-15.426903,-12.018468
2634.940000,2.340000,13.944778,-0.000000,21.876221,0.000000,-2.413707,0.000000,43.548625,-15.426903,-13.020291
2634.950000,2.350000,11.573753,-0.000000,18.011853,0.000000,-2.656753,-0.000000,43.204593,-15.426903,-14.119979
2634.960000,2.360000,8.811230,0.000000,14.060401,0.000000,-2.924849,-0.000000,42.795558,-15.426903,-15.315055
2634.970000,2.370000,5.676886,-0.000000,10.122120,0.000000,-3.252856,0.000000,42.305048,-15.426903,-16.622080
2634.980000,2.380000,2.192756,-0.000000,6.303490,0.000000,-3.634391,0.000000,41.709165,-15.426903,-18.065331
2634.990000,2.390000,-1.619659,0.000000,2.720724,0.000000,-4.018490,0.000000,40.985861,-15.426903,-19.651204
2635.000000,2.400000,-5.728938,0.000000,-0.509244,0.000000,-4.356141,-0.000000,40.123722,-15.426903,-21.356442
2635.010000,2.410000,-10.081561,-0.000000,-3.281641,0.000000,-4.645655,-0.000000,39.119867,-15.426903,-23.144042
2635.020000,2.420000,-14.601019,-0.000000,-5.506451,0.000000,-4.925697,0.000000,37.968378,-15.426903,-24.988256
2635.030000,2.430000,-19.194103,0.000000,-7.102575,0.000000,-5.226646,-0.000000,36.652792,-15.426903,-26.880914
2635.040000,2.440000,-23.752394,-0.000000,-7.999413,0.000000,-5.536462,-0.000000,35.152407,-15.426903,-28.815256
2635.050000,2.450000,-28.148237,-0.000000,-8.152030,0.000000,-5.815825,-0.000000,33.456150,-15.426903,-30.768436
2635.060000,2.460000,-32.235052,0.000000,-7.555910,0.000000,-6.040746,0.000000,31.568589,-15.426903,-32.702215
2635.070000,2.470000,-35.856051,0.000000,-6.245845,0.000000,-6.223977,-0.000000,29.501484,-15.426903,-34.578507
2635.080000,2.480000,-38.854007,-0.000000,-4.284116,0.000000,-6.394492,-0.000000,27.261143,-15.426903,-36.370878
2635.090000,2.490000,-41.075676,-0.000000,-1.757707,0.000000,-6.560610,0.000000,24.847032,-15.426903,-38.060947
2635.100000,2.500000,-42.374993,0.000000,1.207892,0.000000,-6.696910,0.000000,22.264447,-15.426903,-39.627075
2635.110000,2.510000,-42.622149,0.000000,4.436196,0.000000,-6.770497,-0.000000,19.537791,-15.426903,-41.040047
2635.120000,2.520000,-41.715414,-0.000000,7.714218,0.000000,-6.795138,-0.000000,16.706741,-15.426903,-42.271686
2635.130000,2.530000,-39.579652,0.000000,10.855303,0.000000,-6.884955,0.000000,13.792800,-15.426903,-43.310153
2635.140000,2.540000,-36.130386,-0.000000,13.810417,0.000000,-7.221628,-0.000000,10.741390,-15.426903,-44.165974
2635.150000,2.550000,-31.212484,-0.000000,16.738908,0.000000,-7.788603,-0.000000,7.409851,-15.426903,-44.845343
2635.160000,2.560000,-24.622433,0.000000,19.852608,0.000000,-7.941882,0.000000,3.752109,-15.426903,-45.298260
2635.170000,2.570000,-16.441395,0.000000,23.033355,0.000000,-6.450444,-0.000000,0.215740,-15.426903,-45.452878
2635.180000,2.580000,-7.696081,-0.000000,25.732910,0.000000,-2.643904,-0.000000,-2.111344,-15.426903,-45.404327
2635.190000,2.590000,-0.462764,0.000000,27.348178,0.000000,2.174889,0.000000,-2.187919,-15.426903,-45.400701
2635.200000,2.600000,3.581826,0.000000,27.207244,0.000000,5.212268,0.000000,-0.134283,-15.426903,-45.453192
2635.210000,2.610000,4.766927,-0.000000,24.646480,0.000000,4.811533,0.000000,2.550463,-15.426903,-45.381778
2635.220000,2.620000,4.659729,-0.000000,20.153645,0.000000,2.165186,-0.000000,4.235525,-15.426903,-45.255618
2635.230000,2.630000,4.243081,0.000000,15.474171,0.000000,-0.109866,-0.000000,4.513047,-15.426903,-45.228786
2635.240000,2.640000,3.797098,-0.000000,12.092162,0.000000,-0.571455,-0.000000,4.136071,-15.426903,-45.264816
2635.250000,2.650000,3.431770,0.000000,10.303896,0.000000,0.344689,-0.000000,3.995835,-15.426903,-45.277411
2635.260000,2.660000,3.150526,0.000000,9.613449,0.000000,1.541519,0.000000,4.448024,-15.426903,-45.235227
2635.270000,2.670000,2.893916,-0.000000,9.447713,0.000000,2.381203,0.000000,5.389710,-15.426903,-45.132712
2635.280000,2.680000,2.626914,-0.000000,9.465063,0.000000,2.793272,0.000000,6.596664,-15.426903,-44.972155
2635.290000,2.690000,2.348229,0.000000,9.526358,0.000000,2.914129,-0.000000,7.901676,-15.426903,-44.761302
2635.300000,2.700000,2.068747,0.000000,9.589389,0.000000,2.862234,-0.000000,9.205440,-15.426903,-44.511465
2635.310000,2.710000,1.799024,0.000000,9.643631,0.000000,2.718186,-0.000000,10.450026,-15.426903,-44.235819
2635.320000,2.720000,1.544567,0.000000,9.687642,0.000000,2.549142,0.000000,11.610753,-15.426903,-43.945433
2635.330000,2.730000,1.305186,0.000000,9.722787,0.000000,2.394039,0.000000,12.690980,-15.426903,-43.645729
2635.340000,2.740000,1.079078,0.000000,9.750471,0.000000,2.240049,-0.000000,13.700983,-15.426903,-43.339286
2635.350000,2.750000,0.868395,0.000000,9.771489,0.000000,2.041570,0.000000,14.633125,-15.426903,-43.033502
2635.360000,2.760000,0.680136,0.000000,9.786394,0.000000,1.775152,0.000000,15.458797,-15.426903,-42.743845
2635.370000,2.770000,0.520985,0.000000,9.796156,0.000000,1.473794,0.000000,16.151484,-15.426903,-42.486942
2635.380000,2.780000,0.391409,0.000000,9.802188,0.000000,1.202737,-0.000000,16.711858,-15.426903,-42.269664
2635.390000,2.790000,0.285207,0.000000,9.805853,0.000000,1.003028,-0.000000,17.168751,-15.426903,-42.086158
2635.400000,2.800000,0.194702,0.000000,9.808068,0.000000,0.862880,0.000000,17.556407,-15.426903,-41.925926
2635.410000,2.810000,0.115945,0.000000,9.809315,0.000000,0.742065,0.000000,17.892473,-15.426903,-41.783610
2635.420000,2.820000,0.049121,0.000000,9.809877,0.000000,0.616312,-0.000000,18.176691,-15.426903,-41.660756
2635.430000,2.830000,-0.004973,0.000000,9.809999,0.000000,0.494043,0.000000,18.406139,-15.426903,-41.559893
2635.440000,2.840000,-0.047811,0.000000,9.809883,0.000000,0.395697,-0.000000,18.587443,-15.426903,-41.479123
2635.450000,2.850000,-0.082608,0.000000,9.809652,0.000000,0.326564,-0.000000,18.734462,-15.426903,-41.412928
2635.460000,2.860000,-0.111880,0.000000,9.809362,0.000000,0.272638,-0.000000,18.857957,-15.426903,-41.356839
2635.470000,2.870000,-0.136097,0.000000,9.809056,0.000000,0.217127,0.000000,18.959998,-15.426903,-41.310158
2635.480000,2.880000,-0.154477,0.000000,9.808784,0.000000,0.155804,-0.000000,19.037372,-15.426903,-41.274558
2635.490000,2.890000,-0.166662,0.000000,9.808584,0.000000,0.098512,-0.000000,19.088631,-15.426903,-41.250877
2635.500000,2.900000,-0.173802,0.000000,9.808460,0.000000,0.061179,0.000000,19.118656,-15.426903,-41.236970
2635.510000,2.910000,-0.178663,0.000000,9.808373,0.000000,0.056619,-0.000000,19.139091,-15.426903,-41.227489
2635.520000,2.920000,-0.184909,0.000000,9.808257,0.000000,0.086605,0.000000,19.165339,-15.426903,-41.215294
2635.530000,2.930000,-0.195652,0.000000,9.808049,0.000000,0.137552,0.000000,19.210472,-15.426903,-41.194277
2635.540000,2.940000,-0.211891,0.000000,9.807711,0.000000,0.186732,-0.000000,19.278652,-15.426903,-41.162413
2635.550000,2.950000,-0.232280,0.000000,9.807250,0.000000,0.219457,0.000000,19.364183,-15.426903,-41.122246
2635.560000,2.960000,-0.254936,0.000000,9.806687,0.000000,0.241989,0.000000,19.459134,-15.426903,-41.077400
2635.570000,2.970000,-0.279742,0.000000,9.806011,0.000000,0.273942,-0.000000,19.562978,-15.426903,-41.028046
2635.580000,2.980000,-0.308662,0.000000,9.805143,0.000000,0.325933,-0.000000,19.683898,-15.426903,-40.970170
2635.590000,2.990000,-0.343658,0.000000,9.803979,0.000000,0.387266,-0.000000,19.830009,-15.426903,-40.899651
2635.600000,3.000000,-0.384596,0.000000,9.802458,0.000000,0.439893,0.000000,20.000632,-15.426903,-40.816485
2635.610000,3.010000,-0.429898,0.000000,9.800576,0.000000,0.485166,0.000000,20.189067,-15.426903,-40.723608
2635.620000,3.020000,-0.479693,0.000000,9.798265,0.000000,0.551364,0.000000,20.395741,-15.426903,-40.620493
2635.630000,3.030000,-0.537944,0.000000,9.795239,0.000000,0.667430,-0.000000,20.636904,-15.426903,-40.498505
2635.640000,3.040000,-0.610440,0.000000,9.790989,0.000000,0.828108,-0.000000,20.936138,-15.426903,-40.344625
2635.650000,3.050000,-0.700095,0.000000,9.784987,0.000000,0.992584,0.000000,21.304794,-15.426903,-40.151170
2635.660000,3.060000,-0.804678,0.000000,9.776942,0.000000,1.123998,-0.000000,21.732882,-15.426903,-39.921079
2635.670000,3.070000,-0.919870,0.000000,9.766777,0.000000,1.226838,0.000000,22.201951,-15.426903,-39.662124
2635.680000,3.080000,-1.044312,0.000000,9.754256,0.000000,1.338745,0.000000,22.705800,-15.426903,-39.375847
2635.690000,3.090000,-1.181022,0.000000,9.738649,0.000000,1.486977,-0.000000,23.255847,-15.426903,-39.053505
2635.700000,3.100000,-1.333906,0.000000,9.718889,0.000000,1.660946,-0.000000,23.866650,-15.426903,-38.683248
2635.710000,3.110000,-1.503833,0.000000,9.694049,0.000000,1.833182,0.000000,24.540152,-15.426903,-38.259530
2635.720000,3.120000,-1.689279,0.000000,9.663459,0.000000,2.004895,0.000000,25.268640,-15.426903,-37.782357
2635.730000,3.130000,-1.891257,0.000000,9.625967,0.000000,2.220486,0.000000,26.054243,-15.426903,-37.244961
2635.740000,3.140000,-2.116660,0.000000,9.578928,0.000000,2.526024,-0.000000,26.921214,-15.426903,-36.623202
2635.750000,3.150000,-2.374998,0.000000,9.518166,0.000000,2.912902,0.000000,27.902030,-15.426903,-35.881575
2635.760000,3.160000,-2.670882,0.000000,9.439412,0.000000,3.315190,0.000000,29.008224,-15.426903,-34.993337
2635.770000,3.170000,-3.000522,0.000000,9.339859,0.000000,3.672840,-0.000000,30.218480,-15.426903,-33.953706
2635.780000,3.180000,-3.356598,0.000000,9.217882,0.000000,3.991438,0.000000,31.498728,-15.426903,-32.769510
2635.790000,3.190000,-3.736403,0.000000,9.071883,0.000000,4.328503,-0.000000,32.830520,-15.426903,-31.435134
2635.800000,3.200000,-4.145485,-0.000000,8.902731,0.000000,4.720667,-0.000000,34.214900,-15.426903,-29.922421
2635.810000,3.210000,-4.600508,-0.000000,8.731555,0.000000,5.130046,-0.000000,35.648789,-15.426903,-28.198838
2635.820000,3.220000,-5.153019,0.000000,8.651102,0.000000,5.459597,0.000000,37.100842,-15.426903,-26.259059
2635.830000,3.230000,-5.951676,0.000000,8.906276,0.000000,5.611758,0.000000,38.510767,-15.426903,-24.143974
2635.840000,3.240000,-7.290546,-0.000000,9.921335,0.000000,5.536081,0.000000,39.809713,-15.426903,-21.936213
2635.850000,3.250000,-9.462633,-0.000000,12.112715,0.000000,5.246670,-0.000000,40.943871,-15.426903,-19.738543
2635.860000,3.260000,-12.282820,-0.000000,15.468709,0.000000,4.816445,-0.000000,41.889215,-15.426903,-17.643820
2635.870000,3.270000,-14.626964,0.000000,19.280261,0.000000,4.342412,-0.000000,42.653097,-15.426903,-15.707451
2635.880000,3.280000,-14.761530,0.000000,22.516117,0.000000,3.883897,0.000000,43.262130,-15.426903,-13.942696
2635.890000,3.290000,-11.592829,-0.000000,24.669916,0.000000,3.421323,-0.000000,43.743619,-15.426903,-12.349350
2635.900000,3.300000,-5.677038,-0.000000,26.168145,0.000000,2.887716,0.000000,44.114342,-15.426903,-10.951505
2635.910000,3.310000,1.165511,-0.000000,27.834817,0.000000,2.252703,0.000000,44.383598,-15.426903,-9.803413
2635.920000,3.320000,7.205703,-0.000000,30.078393,0.000000,1.573218,-0.000000,44.562856,-15.426903,-8.953353
2635.930000,3.330000,11.710478,0.000000,32.672948,0.000000,0.954323,-0.000000,44.670049,-15.426903,-8.402224
2635.940000,3.340000,14.805581,0.000000,35.110296,0.000000,0.460923,-0.000000,44.725620,-15.426903,-8.101210
2635.950000,3.350000,16.895586,0.000000,36.973081,0.000000,0.073831,-0.000000,44.745606,-15.426903,-7.990081
2635.960000,3.360000,18.303639,-0.000000,38.051699,0.000000,-0.270490,0.000000,44.737534,-15.426903,-8.035158
2635.970000,3.370000,19.208989,-0.000000,38.292042,0.000000,-0.609475,0.000000,44.701727,-15.426903,-8.232028
2635.980000,3.380000,19.689011,0.000000,37.722995,0.000000,-0.930060,0.000000,44.636267,-15.426903,-8.579880
2635.990000,3.390000,19.761151,0.000000,36.414655,0.000000,-1.205217,0.000000,44.540874,-15.426903,-9.062074
2636.000000,3.400000,19.418349,-0.000000,34.455022,0.000000,-1.438148,-0.000000,44.416502,-15.426903,-9.653238
2636.010000,3.410000,18.657412,-0.000000,31.933728,0.000000,-1.662502,0.000000,44.261824,-15.426903,-10.339322
2636.020000,3.420000,17.486764,0.000000,28.936667,0.000000,-1.905661,0.000000,44.071023,-15.426903,-11.124549
2636.030000,3.430000,15.915516,0.000000,25.551980,0.000000,-2.163095,0.000000,43.835683,-15.426903,-12.018468
2636.040000,3.440000,13.944778,-0.000000,21.876221,0.000000,-2.413707,-0.000000,43.548625,-15.426903,-13.020291
2636.050000,3.450000,11.573753,-0.000000,18.011853,0.000000,-2.656753,-0.000000,43.204593,-15.426903,-14.119979
2636.060000,3.460000,8.811230,-0.000000,14.060401,0.000000,-2.924849,0.000000,42.795558,-15.426903,-15.315055
2636.070000,3.470000,5.676886,0.000000,10.122120,0.000000,-3.252856,0.000000,42.305048,-15.426903,-16.622080
2636.080000,3.480000,2.192756,-0.000000,6.303490,0.000000,-3.634391,0.000000,41.709165,-15.426903,-18.065331
2636.090000,3.490000,-1.619659,-0.000000,2.720724,0.000000,-4.018490,0.000000,40.985861,-15.426903,-19.651204
2636.100000,3.500000,-5.728938,-0.000000,-0.509244,0.000000,-4.356141,-0.000000,40.123722,-15.426903,-21.356442
2636.110000,3.510000,-10.081561,0.000000,-3.281641,0.000000,-4.645655,-0.000000,39.119867,-15.426903,-23.144042
2636.120000,3.520000,-14.601019,-0.000000,-5.506451,0.000000,-4.925697,-0.000000,37.968378,-15.426903,-24.988256
2636.130000,3.530000,-19.194103,0.000000,-7.102575,0.000000,-5.226646,-0.000000,36.652792,-15.426903,-26.880914
2636.140000,3.540000,-23.752394,0.000000,-7.999413,0.000000,-5.536462,0.000000,35.152407,-15.426903,-28.815256
2636.150000,3.550000,-28.148237,-0.000000,-8.152030,0.000000,-5.815825,0.000000,33.456150,-15.426903,-30.768436
2636.160000,3.560000,-32.235052,-0.000000,-7.555910,0.000000,-6.040746,0.000000,31.568589,-15.426903,-32.702215
2636.170000,3.570000,-35.856051,0.000000,-6.245845,0.000000,-6.223977,-0.000000,29.501484,-15.426903,-34.578507
2636.180000,3.580000,-38.854007,0.000000,-4.284116,0.000000,-6.394492,-0.000000,27.261143,-15.426903,-36.370878
2636.190000,3.590000,-41.075676,-0.000000,-1.757707,0.000000,-6.560610,-0.000000,24.847032,-15.426903,-38.060947
2636.200000,3.600000,-42.374993,-0.000000,1.207892,0.000000,-6.696910,-0.000000,22.264447,-15.426903,-39.627075
2636.210000,3.610000,-42.622149,-0.000000,4.436196,0.000000,-6.770497,-0.000000,19.537791,-15.426903,-41.040047
2636.220000,3.620000,-41.715414,-0.000000,7.714218,0.000000,-6.795138,0.000000,16.706741,-15.426903,-42.271686
2636.230000,3.630000,-39.579652,0.000000,10.855303,0.000000,-6.884955,0.000000,13.792800,-15.426903,-43.310153
2636.240000,3.640000,-36.130386,-0.000000,13.810417,0.000000,-7.221628,-0.000000,10.741390,-15.426903,-44.165974
2636.250000,3.650000,-31.212484,-0.000000,16.738908,0.000000,-7.788603,0.000000,7.409851,-15.426903,-44.845343
2636.260000,3.660000,-24.622433,0.000000,19.852608,0.000000,-7.941882,0.000000,3.752109,-15.426903,-45.298260
2636.270000,3.670000,-16.441395,-0.000000,23.033355,0.000000,-6.450444,-0.000000,0.215740,-15.426903,-45.452878
2636.280000,3.680000,-7.696081,0.000000,25.732910,0.000000,-2.643904,-0.000000,-2.111344,-15.426903,-45.404327
2636.290000,3.690000,-0.462764,0.000000,27.348178,0.000000,2.174889,-0.000000,-2.187919,-15.426903,-45.400701
2636.300000,3.700000,3.581826,-0.000000,27.207244,0.000000,5.212268,0.000000,-0.134283,-15.426903,-45.453192
2636.310000,3.710000,4.766927,-0.000000,24.646480,0.000000,4.811533,-0.000000,2.550463,-15.426903,-45.381778
2636.320000,3.720000,4.659729,0.000000,20.153645,0.000000,2.165186,-0.000000,4.235525,-15.426903,-45.255618
2636.330000,3.730000,4.243081,-0.000000,15.474171,0.000000,-0.109866,0.000000,4.513047,-15.426903,-45.228786
2636.340000,3.740000,3.797098,0.000000,12.092162,0.000000,-0.571455,-0.000000,4.136071,-15.426903,-45.264816
2636.350000,3.750000,3.431770,-0.000000,10.303896,0.000000,0.344689,-0.000000,3.995835,-15.426903,-45.277411
2636.360000,3.760000,3.150526,-0.000000,9.613449,0.000000,1.541519,0.000000,4.448024,-15.426903,-45.235227
2636.370000,3.770000,2.893916,-0.000000,9.447713,0.000000,2.381203,0.000000,5.389710,-15.426903,-45.132712
2636.380000,3.780000,2.626914,0.000000,9.465063,0.000000,2.793272,0.000000,6.596664,-15.426903,-44.972155
2636.390000,3.790000,2.348229,0.000000,9.526358,0.000000,2.914129,-0.000000,7.901676,-15.426903,-44.761302
2636.400000,3.800000,2.068747,0.000000,9.589389,0.000000,2.862234,0.000000,9.205440,-15.426903,-44.511465
2636.410000,3.810000,1.799024,0.000000,9.643631,0.000000,2.718186,0.000000,10.450026,-15.426903,-44.235819
2636.420000,3.820000,1.544567,0.000000,9.687642,0.000000,2.549142,0.000000,11.610753,-15.426903,-43.945433
2636.430000,3.830000,1.305186,0.000000,9.722787,0.000000,2.394039,-0.000000,12.690980,-15.426903,-43.645729
2636.440000,3.840000,1.079078,0.000000,9.750471,0.000000,2.240049,-0.000000,13.700983,-15.426903,-43.339286
2636.450000,3.850000,0.868395,0.000000,9.771489,0.000000,2.041570,0.000000,14.633125,-15.426903,-43.033502
2636.460000,3.860000,0.680136,0.000000,9.786394,0.000000,1.775152,0.000000,15.458797,-15.426903,-42.743845
2636.470000,3.870000,0.520985,0.000000,9.796156,0.000000,1.473794,0.000000,16.151484,-15.426903,-42.486942
2636.480000,3.880000,0.391409,0.000000,9.802188,0.000000,1.202737,-0.000000,16.711858,-15.426903,-42.269664
2636.490000,3.890000,0.285207,0.000000,9.805853,0.000000,1.003028,-0.000000,17.168751,-15.426903,-42.086158
2636.500000,3.900000,0.194702,0.000000,9.808068,0.000000,0.862880,0.000000,17.556407,-15.426903,-41.925926
2636.510000,3.910000,0.115945,0.000000,9.809315,0.000000,0.742065,0.000000,17.892473,-15.426903,-41.783610
2636.520000,3.920000,0.049121,0.000000,9.809877,0.000000,0.616312,-0.000000,18.176691,-15.426903,-41.660756
2636.530000,3.930000,-0.004973,0.000000,9.809999,0.000000,0.494043,0.000000,18.406139,-15.426903,-41.559893
2636.540000,3.940000,-0.047811,0.000000,9.809883,0.000000,0.395697,-0.000000,18.587443,-15.426903,-41.479123
2636.550000,3.950000,-0.082608,0.000000,9.809652,0.000000,0.326564,-0.000000,18.734462,-15.426903,-41.412928
2636.560000,3.960000,-0.111880,0.000000,9.809362,0.000000,0.272638,-0.000000,18.857957,-15.426903,-41.356839
2636.570000,3.970000,-0.136097,0.000000,9.809056,0.000000,0.217127,0.000000,18.959998,-15.426903,-41.310158
2636.580000,3.980000,-0.154477,0.000000,9.808784,0.000000,0.155804,-0.000000,19.037372,-15.426903,-41.274558
2636.590000,3.990000,-0.166662,0.000000,9.808584,0.000000,0.098512,-0.000000,19.088631,-15.426903,-41.250877
2636.600000,4.000000,-0.173802,0.000000,9.808460,0.000000,0.061179,0.000000,19.118656,-15.426903,-41.236970
2636.610000,4.010000,-0.178663,0.000000,9.808373,0.000000,0.056619,-0.000000,19.139091,-15.426903,-41.227489
2636.620000,4.020000,-0.184909,0.000000,9.808257,0.000000,0.086605,0.000000,19.165339,-15.426903,-41.215294
2636.630000,4.030000,-0.195652,0.000000,9.808049,0.000000,0.137552,0.000000,19.210472,-15.426903,-41.194277
2636.640000,4.040000,-0.211891,0.000000,9.807711,0.000000,0.186732,-0.000000,19.278652,-15.426903,-41.162413
2636.650000,4.050000,-0.232280,0.000000,9.807250,0.000000,0.219457,0.000000,19.364183,-15.426903,-41.122246
2636.660000,4.060000,-0.254936,0.000000,9.806687,0.000000,0.241989,0.000000,19.459134,-15.426903,-41.077400
2636.670000,4.070000,-0.279742,0.000000,9.806011,0.000000,0.273942,-0.000000,19.562978,-15.426903,-41.028046
2636.680000,4.080000,-0.308662,0.000000,9.805143,0.000000,0.325933,-0.000000,19.683898,-15.426903,-40.970170
2636.690000,4.090000,-0.343658,0.000000,9.803979,0.000000,0.387266,-0.000000,19.830009,-15.426903,-40.899651
2636.700000,4.100000,-0.384596,0.000000,9.802458,0.000000,0.439893,0.000000,20.000632,-15.426903,-40.816485
2636.710000,4.110000,-0.429898,0.000000,9.800576,0.000000,0.485166,0.000000,20.189067,-15.426903,-40.723608
2636.720000,4.120000,-0.479693,0.000000,9.798265,0.000000,0.551364,0.000000,20.395741,-15.426903,-40.620493
2636.730000,4.130000,-0.537944,0.000000,9.795239,0.000000,0.667430,-0.000000,20.636904,-15.426903,-40.498505
2636.740000,4.140000,-0.610440,0.000000,9.790989,0.000000,0.828108,-0.000000,20.936138,-15.426903,-40.344625
2636.750000,4.150000,-0.700095,0.000000,9.784987,0.000000,0.992584,0.000000,21.304794,-15.426903,-40.151170
2636.760000,4.160000,-0.804678,0.000000,9.776942,0.000000,1.123998,-0.000000,21.732882,-15.426903,-39.921079
2636.770000,4.170000,-0.919870,0.000000,9.766777,0.000000,1.226838,0.000000,22.201951,-15.426903,-39.662124
2636.780000,4.180000,-1.044312,0.000000,9.754256,0.000000,1.338745,0.000000,22.705800,-15.426903,-39.375847
2636.790000,4.190000,-1.181022,0.000000,9.738649,0.000000,1.486977,-0.000000,23.255847,-15.426903,-39.053505
2636.800000,4.200000,-1.333906,0.000000,9.718889,0.000000,1.660946,-0.000000,23.866650,-15.426903,-38.683248
2636.810000,4.210000,-1.503833,0.000000,9.694049,0.000000,1.833182,0.000000,24.540152,-15.426903,-38.259530
2636.820000,4.220000,-1.689279,0.000000,9.663459,0.000000,2.004895,0.000000,25.268640,-15.426903,-37.782357
2636.830000,4.230000,-1.891257,0.000000,9.625967,0.000000,2.220486,0.000000,26.054243,-15.426903,-37.244961
2636.840000,4.240000,-2.116660,0.000000,9.578928,0.000000,2.526024,-0.000000,26.921214,-15.426903,-36.623202
2636.850000,4.250000,-2.374998,0.000000,9.518166,0.000000,2.912902,0.000000,27.902030,-15.426903,-35.881575
2636.860000,4.260000,-2.670882,0.000000,9.439412,0.000000,3.315190,0.000000,29.008224,-15.426903,-34.993337
2636.870000,4.270000,-3.000522,0.000000,9.339859,0.000000,3.672840,-0.000000,30.218480,-15.426903,-33.953706
2636.880000,4.280000,-3.356598,0.000000,9.217882,0.000000,3.991438,0.000000,31.498728,-15.426903,-32.769510
2636.890000,4.290000,-3.736403,-0.000000,9.071883,0.000000,4.328503,-0.000000,32.830520,-15.426903,-31.435134
2636.900000,4.300000,-4.145485,-0.000000,8.902731,0.000000,4.720667,-0.000000,34.214900,-15.426903,-29.922421
2636.910000,4.310000,-4.600508,0.000000,8.731555,0.000000,5.130046,-0.000000,35.648789,-15.426903,-28.198838
2636.920000,4.320000,-5.153019,-0.000000,8.651102,0.000000,5.459597,-0.000000,37.100842,-15.426903,-26.259059
2636.930000,4.330000,-5.951676,-0.000000,8.906276,0.000000,5.611758,0.000000,38.510767,-15.426903,-24.143974
2636.940000,4.340000,-7.290546,0.000000,9.921335,0.000000,5.536081,-0.000000,39.809713,-15.426903,-21.936213
2636.950000,4.350000,-9.462633,0.000000,12.112715,0.000000,5.246670,-0.000000,40.943871,-15.426903,-19.738543
2636.960000,4.360000,-12.282820,-0.000000,15.468709,0.000000,4.816445,0.000000,41.889215,-15.426903,-17.643820
2636.970000,4.370000,-14.626964,0.000000,19.280261,0.000000,4.342412,0.000000,42.653097,-15.426903,-15.707451
2636.980000,4.380000,-14.761530,0.000000,22.516117,0.000000,3.883897,0.000000,43.262130,-15.426903,-13.942696
2636.990000,4.390000,-11.592829,-0.000000,24.669916,0.000000,3.421323,-0.000000,43.743619,-15.426903,-12.349350
2637.000000,4.400000,-5.677038,-0.000000,26.168145,0.000000,2.887716,0.000000,44.114342,-15.426903,-10.951505
2637.010000,4.410000,1.165511,0.000000,27.834817,0.000000,2.252703,-0.000000,44.383598,-15.426903,-9.803413
2637.020000,4.420000,7.205703,0.000000,30.078393,0.000000,1.573218,-0.000000,44.562856,-15.426903,-8.953353
2637.030000,4.430000,11.710478,0.000000,32.672948,0.000000,0.954323,0.000000,44.670049,-15.426903,-8.402224
2637.040000,4.440000,14.805581,-0.000000,35.110296,0.000000,0.460923,-0.000000,44.725620,-15.426903,-8.101210
2637.050000,4.450000,16.895586,-0.000000,36.973081,0.000000,0.073831,0.000000,44.745606,-15.426903,-7.990081
2637.060000,4.460000,18.303639,-0.000000,38.051699,0.000000,-0.270490,0.000000,44.737534,-15.426903,-8.035158
2637.070000,4.470000,19.208989,0.000000,38.292042,0.000000,-0.609475,-0.000000,44.701727,-15.426903,-8.232028
2637.080000,4.480000,19.689011,0.000000,37.722995,0.000000,-0.930060,0.000000,44.636267,-15.426903,-8.579880
2637.090000,4.490000,19.761151,0.000000,36.414655,0.000000,-1.205217,-0.000000,44.540874,-15.426903,-9.062074
2637.100000,4.500000,19.418349,0.000000,34.455022,0.000000,-1.438148,0.000000,44.416502,-15.426903,-9.653238
2637.110000,4.510000,18.657412,-0.000000,31.933728,0.000000,-1.662502,-0.000000,44.261824,-15.426903,-10.339322
2637.120000,4.520000,17.486764,-0.000000,28.936667,0.000000,-1.905661,-0.000000,44.071023,-15.426903,-11.124549
2637.130000,4.530000,15.915516,-0.000000,25.551980,0.000000,-2.163095,0.000000,43.835683,-15.426903,-12.018468
2637.140000,4.540000,13.944778,0.000000,21.876221,0.000000,-2.413707,-0.000000,43.548625,-15.426903,-13.020291
2637.150000,4.550000,11.573753,0.000000,18.011853,0.000000,-2.656753,-0.000000,43.204593,-15.426903,-14.119979
2637.160000,4.560000,8.811230,-0.000000,14.060401,0.000000,-2.924849,0.000000,42.795558,-15.426903,-15.315055
2637.170000,4.570000,5.676886,-0.000000,10.122120,0.000000,-3.252856,0.000000,42.305048,-15.426903,-16.622080
2637.180000,4.580000,2.192756,-0.000000,6.303490,0.000000,-3.634391,-0.000000,41.709165,-15.426903,-18.065331
2637.190000,4.590000,-1.619659,-0.000000,2.720724,0.000000,-4.018490,0.000000,40.985861,-15.426903,-19.651204
2637.200000,4.600000,-5.728938,0.000000,-0.509244,0.000000,-4.356141,0.000000,40.123722,-15.426903,-21.356442
2637.210000,4.610000,-10.081561,0.000000,-3.281641,0.000000,-4.645655,0.000000,39.119867,-15.426903,-23.144042
2637.220000,4.620000,-14.601019,-0.000000,-5.506451,0.000000,-4.925697,0.000000,37.968378,-15.426903,-24.988256
2637.230000,4.630000,-19.194103,-0.000000,-7.102575,0.000000,-5.226646,-0.000000,36.652792,-15.426903,-26.880914
2637.240000,4.640000,-23.752394,0.000000,-7.999413,0.000000,-5.536462,0.000000,35.152407,-15.426903,-28.815256
2637.250000,4.650000,-28.148237,0.000000,-8.152030,0.000000,-5.815825,0.000000,33.456150,-15.426903,-30.768436
2637.260000,4.660000,-32.235052,0.000000,-7.555910,0.000000,-6.040746,-0.000000,31.568589,-15.426903,-32.702215
2637.270000,4.670000,-35.856051,0.000000,-6.245845,0.000000,-6.223977,-0.000000,29.501484,-15.426903,-34.578507
2637.280000,4.680000,-38.854007,0.000000,-4.284116,0.000000,-6.394492,-0.000000,27.261143,-15.426903,-36.370878
2637.290000,4.690000,-41.075676,-0.000000,-1.757707,0.000000,-6.560610,-0.000000,24.847032,-15.426903,-38.060947
2637.300000,4.700000,-42.374993,-0.000000,1.207892,0.000000,-6.696910,0.000000,22.264447,-15.426903,-39.627075
2637.310000,4.710000,-42.622149,0.000000,4.436196,0.000000,-6.770497,-0.000000,19.537791,-15.426903,-41.040047
2637.320000,4.720000,-41.715414,-0.000000,7.714218,0.000000,-6.795138,0.000000,16.706741,-15.426903,-42.271686
2637.330000,4.730000,-39.579652,0.000000,10.855303,0.000000,-6.884955,0.000000,13.792800,-15.426903,-43.310153
2637.340000,4.740000,-36.130386,0.000000,13.810417,0.000000,-7.221628,-0.000000,10.741390,-15.426903,-44.165974
2637.350000,4.750000,-31.212484,-0.000000,16.738908,0.000000,-7.788603,-0.000000,7.409851,-15.426903,-44.845343
2637.360000,4.760000,-24.622433,-0.000000,19.852608,0.000000,-7.941882,0.000000,3.752109,-15.426903,-45.298260
2637.370000,4.770000,-16.441395,-0.000000,23.033355,0.000000,-6.450444,0.000000,0.215740,-15.426903,-45.452878
2637.380000,4.780000,-7.696081,0.000000,25.732910,0.000000,-2.643904,-0.000000,-2.111344,-15.426903,-45.404327
2637.390000,4.790000,-0.462764,-0.000000,27.348178,0.000000,2.174889,0.000000,-2.187919,-15.426903,-45.400701
2637.400000,4.800000,3.581826,-0.000000,27.207244,0.000000,5.212268,-0.000000,-0.134283,-15.426903,-45.453192
2637.410000,4.810000,4.766927,0.000000,24.646480,0.000000,4.811533,-0.000000,2.550463,-15.426903,-45.381778
2637.420000,4.820000,4.659729,0.000000,20.153645,0.000000,2.165186,0.000000,4.235525,-15.426903,-45.255618
2637.430000,4.830000,4.243081,-0.000000,15.474171,0.000000,-0.109866,0.000000,4.513047,-15.426903,-45.228786
2637.440000,4.840000,3.797098,-0.000000,12.092162,0.000000,-0.571455,-0.000000,4.136071,-15.426903,-45.264816
2637.450000,4.850000,3.431770,0.000000,10.303896,0.000000,0.344689,-0.000000,3.995835,-15.426903,-45.277411
2637.460000,4.860000,3.150526,-0.000000,9.613449,0.000000,1.541519,0.000000,4.448024,-15.426903,-45.235227
2637.470000,4.870000,2.893916,-0.000000,9.447713,0.000000,2.381203,0.000000,5.389710,-15.426903,-45.132712
2637.480000,4.880000,2.626914,0.000000,9.465063,0.000000,2.793272,-0.000000,6.596664,-15.426903,-44.972155
2637.490000,4.890000,2.348229,0.000000,9.526358,0.000000,2.914129,0.000000,7.901676,-15.426903,-44.761302
2637.500000,4.900000,2.068747,0.000000,9.589389,0.000000,2.862234,0.000000,9.205440,-15.426903,-44.511465
2637.510000,4.910000,1.799024,0.000000,9.643631,0.000000,2.718186,-0.000000,10.450026,-15.426903,-44.235819
2637.520000,4.920000,1.544567,0.000000,9.687642,0.000000,2.549142,0.000000,11.610753,-15.426903,-43.945433
2637.530000,4.930000,1.305186,0.000000,9.722787,0.000000,2.394039,-0.000000,12.690980,-15.426903,-43.645729
2637.540000,4.940000,1.079078,0.000000,9.750471,0.000000,2.240049,-0.000000,13.700983,-15.426903,-43.339286
2637.550000,4.950000,0.868395,0.000000,9.771489,0.000000,2.041570,0.000000,14.633125,-15.426903,-43.033502
2637.560000,4.960000,0.680136,0.000000,9.786394,0.000000,1.775152,0.000000,15.458797,-15.426903,-42.743845
2637.570000,4.970000,0.520985,0.000000,9.796156,0.000000,1.473794,0.000000,16.151484,-15.426903,-42.486942
2637.580000,4.980000,0.391409,0.000000,9.802188,0.000000,1.202737,-0.000000,16.711858,-15.426903,-42.269664
2637.590000,4.990000,0.285207,0.000000,9.805853,0.000000,1.003028,-0.000000,17.168751,-15.426903,-42.086158
2637.600000,5.000000,0.194702,0.000000,9.808068,0.000000,0.862880,0.000000,17.556407,-15.426903,-41.925926
2637.610000,5.010000,0.115945,0.000000,9.809315,0.000000,0.742065,0.000000,17.892473,-15.426903,-41.783610
2637.620000,5.020000,0.049121,0.000000,9.809877,0.000000,0.616312,-0.000000,18.176691,-15.426903,-41.660756
2637.630000,5.030000,-0.004973,0.000000,9.809999,0.000000,0.494043,0.000000,18.406139,-15.426903,-41.559893
2637.640000,5.040000,-0.047811,0.000000,9.809883,0.000000,0.395697,-0.000000,18.587443,-15.426903,-41.479123
2637.650000,5.050000,-0.082608,0.000000,9.809652,0.000000,0.326564,-0.000000,18.734462,-15.426903,-41.412928
2637.660000,5.060000,-0.111880,0.000000,9.809362,0.000000,0.272638,-0.000000,18.857957,-15.426903,-41.356839
2637.670000,5.070000,-0.136097,0.000000,9.809056,0.000000,0.217127,0.000000,18.959998,-15.426903,-41.310158
2637.680000,5.080000,-0.154477,0.000000,9.808784,0.000000,0.155804,-0.000000,19.037372,-15.426903,-41.274558
2637.690000,5.090000,-0.166662,0.000000,9.808584,0.000000,0.098512,-0.000000,19.088631,-15.426903,-41.250877
2637.700000,5.100000,-0.173802,0.000000,9.808460,0.000000,0.061179,0.000000,19.118656,-15.426903,-41.236970
2637.710000,5.110000,-0.178663,0.000000,9.808373,0.000000,0.056619,-0.000000,19.139091,-15.426903,-41.227489
2637.720000,5.120000,-0.184909,0.000000,9.808257,0.000000,0.086605,0.000000,19.165339,-15.426903,-41.215294
2637.730000,5.130000,-0.195652,0.000000,9.808049,0.000000,0.137552,0.000000,19.210472,-15.426903,-41.194277
2637.740000,5.140000,-0.211891,0.000000,9.807711,0.000000,0.186732,-0.000000,19.278652,-15.426903,-41.162413
2637.750000,5.150000,-0.232280,0.000000,9.807250,0.000000,0.219457,0.000000,19.364183,-15.426903,-41.122246
2637.760000,5.160000,-0.254936,0.000000,9.806687,0.000000,0.241989,0.000000,19.459134,-15.426903,-41.077400
2637.770000,5.170000,-0.279742,0.000000,9.806011,0.000000,0.273942,-0.000000,19.562978,-15.426903,-41.028046
2637.780000,5.180000,-0.308662,0.000000,9.805143,0.000000,0.325933,-0.000000,19.683898,-15.426903,-40.970170
2637.790000,5.190000,-0.343658,0.000000,9.803979,0.000000,0.387266,-0.000000,19.830009,-15.426903,-40.899651
2637.800000,5.200000,-0.384596,0.000000,9.802458,0.000000,0.439893,0.000000,20.000632,-15.426903,-40.816485
2637.810000,5.210000,-0.429898,0.000000,9.800576,0.000000,0.485166,0.000000,20.189067,-15.426903,-40.723608
2637.820000,5.220000,-0.479693,0.000000,9.798265,0.000000,0.551364,0.000000,20.395741,-15.426903,-40.620493
2637.830000,5.230000,-0.537944,0.000000,9.795239,0.000000,0.667430,-0.000000,20.636904,-15.426903,-40.498505
2637.840000,5.240000,-0.610440,0.000000,9.790989,0.000000,0.828108,-0.000000,20.936138,-15.426903,-40.344625
2637.850000,5.250000,-0.700095,0.000000,9.784987,0.000000,0.992584,0.000000,21.304794,-15.426903,-40.151170
2637.860000,5.260000,-0.804678,0.000000,9.776942,0.000000,1.123998,-0.000000,21.732882,-15.426903,-39.921079
2637.870000,5.270000,-0.919870,0.000000,9.766777,0.000000,1.226838,0.000000,22.201951,-15.426903,-39.662124
2637.880000,5.280000,-1.044312,0.000000,9.754256,0.000000,1.338745,0.000000,22.705800,-15.426903,-39.375847
2637.890000,5.290000,-1.181022,0.000000,9.738649,0.000000,1.486977,-0.000000,23.255847,-15.426903,-39.053505
2637.900000,5.300000,-1.333906,0.000000,9.718889,0.000000,1.660946,-0.000000,23.866650,-15.426903,-38.683248
2637.910000,5.310000,-1.503833,0.000000,9.694049,0.000000,1.833182,0.000000,24.540152,-15.426903,-38.259530
2637.920000,5.320000,-1.689279,0.000000,9.663459,0.000000,2.004895,-0.000000,25.268640,-15.426903,-37.782357
2637.930000,5.330000,-1.891257,0.000000,9.625967,0.000000,2.220486,0.000000,26.054243,-15.426903,-37.244961
2637.940000,5.340000,-2.116660,0.000000,9.578928,0.000000,2.526024,0.000000,26.921214,-15.426903,-36.623202
2637.950000,5.350000,-2.374998,0.000000,9.518166,0.000000,2.912902,0.000000,27.902030,-15.426903,-35.881575
2637.960000,5.360000,-2.670882,0.000000,9.439412,0.000000,3.315190,0.000000,29.008224,-15.426903,-34.993337
2637.970000,5.370000,-3.000522,0.000000,9.339859,0.000000,3.672840,0.000000,30.218480,-15.426903,-33.953706
2637.980000,5.380000,-3.356598,0.000000,9.217882,0.000000,3.991438,0.000000,31.498728,-15.426903,-32.769510
2637.990000,5.390000,-3.736403,-0.000000,9.071883,0.000000,4.328503,-0.000000,32.830520,-15.426903,-31.435134
2638.000000,5.400000,-4.145485,-0.000000,8.902731,0.000000,4.720667,0.000000,34.214900,-15.426903,-29.922421
2638.010000,5.410000,-4.600508,0.000000,8.731555,0.000000,5.130046,-0.000000,35.648789,-15.426903,-28.198838
2638.020000,5.420000,-5.153019,0.000000,8.651102,0.000000,5.459597,-0.000000,37.100842,-15.426903,-26.259059
2638.030000,5.430000,-5.951676,-0.000000,8.906276,0.000000,5.611758,0.000000,38.510767,-15.426903,-24.143974
2638.040000,5.440000,-7.290546,-0.000000,9.921335,0.000000,5.536081,0.000000,39.809713,-15.426903,-21.936213
2638.050000,5.450000,-9.462633,0.000000,12.112715,0.000000,5.246670,-0.000000,40.943871,-15.426903,-19.738543
2638.060000,5.460000,-12.282820,0.000000,15.468709,0.000000,4.816445,-0.000000,41.889215,-15.426903,-17.643820
2638.070000,5.470000,-14.626964,0.000000,19.280261,0.000000,4.342412,0.000000,42.653097,-15.426903,-15.707451
2638.080000,5.480000,-14.761530,-0.000000,22.516117,0.000000,3.883897,0.000000,43.262130,-15.426903,-13.942696
2638.090000,5.490000,-11.592829,0.000000,24.669916,0.000000,3.421323,0.000000,43.743619,-15.426903,-12.349350
2638.100000,5.500000,-5.677038,0.000000,26.168145,0.000000,2.887716,0.000000,44.114342,-15.426903,-10.951505
2638.110000,5.510000,1.165511,-0.000000,27.834817,0.000000,2.252703,-0.000000,44.383598,-15.426903,-9.803413
2638.120000,5.520000,7.205703,0.000000,30.078393,0.000000,1.573218,-0.000000,44.562856,-15.426903,-8.953353
2638.130000,5.530000,11.710478,-0.000000,32.672948,0.000000,0.954323,0.000000,44.670049,-15.426903,-8.402224
2638.140000,5.540000,14.805581,-0.000000,35.110296,0.000000,0.460923,-0.000000,44.725620,-15.426903,-8.101210
2638.150000,5.550000,16.895586,-0.000000,36.973081,0.000000,0.073831,0.000000,44.745606,-15.426903,-7.990081
2638.160000,5.560000,18.303639,0.000000,38.051699,0.000000,-0.270490,0.000000,44.737534,-15.426903,-8.035158
2638.170000,5.570000,19.208989,0.000000,38.292042,0.000000,-0.609475,-0.000000,44.701727,-15.426903,-8.232028
2638.180000,5.580000,19.689011,0.000000,37.722995,0.000000,-0.930060,0.000000,44.636267,-15.426903,-8.579880
2638.190000,5.590000,19.761151,0.000000,36.414655,0.000000,-1.205217,0.000000,44.540874,-15.426903,-9.062074
2638.200000,5.600000,19.418349,-0.000000,34.455022,0.000000,-1.438148,-0.000000,44.416502,-15.426903,-9.653238
2638.210000,5.610000,18.657412,-0.000000,31.933728,0.000000,-1.662502,-0.000000,44.261824,-15.426903,-10.339322
2638.220000,5.620000,17.486764,-0.000000,28.936667,0.000000,-1.905661,0.000000,44.071023,-15.426903,-11.124549
2638.230000,5.630000,15.915516,0.000000,25.551980,0.000000,-2.163095,0.000000,43.835683,-15.426903,-12.018468
2638.240000,5.640000,13.944778,-0.000000,21.876221,0.000000,-2.413707,0.000000,43.548625,-15.426903,-13.020291
2638.250000,5.650000,11.573753,-0.000000,18.011853,0.000000,-2.656753,0.000000,43.204593,-15.426903,-14.119979
2638.260000,5.660000,8.811230,0.000000,14.060401,0.000000,-2.924849,-0.000000,42.795558,-15.426903,-15.315055
2638.270000,5.670000,5.676886,0.000000,10.122120,0.000000,-3.252856,0.000000,42.305048,-15.426903,-16.622080
2638.280000,5.680000,2.192756,0.000000,6.303490,0.000000,-3.634391,0.000000,41.709165,-15.426903,-18.065331
2638.290000,5.690000,-1.619659,-0.000000,2.720724,0.000000,-4.018490,0.000000,40.985861,-15.426903,-19.651204
2638.300000,5.700000,-5.728938,-0.000000,-0.509244,0.000000,-4.356141,-0.000000,40.123722,-15.426903,-21.356442
2638.310000,5.710000,-10.081561,0.000000,-3.281641,0.000000,-4.645655,-0.000000,39.119867,-15.426903,-23.144042
2638.320000,5.720000,-14.601019,0.000000,-5.506451,0.000000,-4.925697,0.000000,37.968378,-15.426903,-24.988256
2638.330000,5.730000,-19.194103,-0.000000,-7.102575,0.000000,-5.226646,0.000000,36.652792,-15.426903,-26.880914
2638.340000,5.740000,-23.752394,-0.000000,-7.999413,0.000000,-5.536462,-0.000000,35.152407,-15.426903,-28.815256
2638.350000,5.750000,-28.148237,0.000000,-8.152030,0.000000,-5.815825,0.000000,33.456150,-15.426903,-30.768436
2638.360000,5.760000,-32.235052,0.000000,-7.555910,0.000000,-6.040746,0.000000,31.568589,-15.426903,-32.702215
2638.370000,5.770000,-35.856051,-0.000000,-6.245845,0.000000,-6.223977,0.000000,29.501484,-15.426903,-34.578507
2638.380000,5.780000,-38.854007,0.000000,-4.284116,0.000000,-6.394492,-0.000000,27.261143,-15.426903,-36.370878
2638.390000,5.790000,-41.075676,-0.000000,-1.757707,0.000000,-6.560610,-0.000000,24.847032,-15.426903,-38.060947
2638.400000,5.800000,-42.374993,-0.000000,1.207892,0.000000,-6.696910,-0.000000,22.264447,-15.426903,-39.627075
2638.410000,5.810000,-42.622149,-0.000000,4.436196,0.000000,-6.770497,-0.000000,19.537791,-15.426903,-41.040047
2638.420000,5.820000,-41.715414,0.000000,7.714218,0.000000,-6.795138,0.000000,16.706741,-15.426903,-42.271686
2638.430000,5.830000,-39.579652,0.000000,10.855303,0.000000,-6.884955,0.000000,13.792800,-15.426903,-43.310153
2638.440000,5.840000,-36.130386,-0.000000,13.810417,0.000000,-7.221628,-0.000000,10.741390,-15.426903,-44.165974
2638.450000,5.850000,-31.212484,-0.000000,16.738908,0.000000,-7.788603,0.000000,7.409851,-15.426903,-44.845343
2638.460000,5.860000,-24.622433,0.000000,19.852608,0.000000,-7.941882,-0.000000,3.752109,-15.426903,-45.298260
2638.470000,5.870000,-16.441395,-0.000000,23.033355,0.000000,-6.450444,-0.000000,0.215740,-15.426903,-45.452878
2638.480000,5.880000,-7.696081,-0.000000,25.732910,0.000000,-2.643904,0.000000,-2.111344,-15.426903,-45.404327
2638.490000,5.890000,-0.462764,0.000000,27.348178,0.000000,2.174889,-0.000000,-2.187919,-15.426903,-45.400701
2638.500000,5.900000,3.581826,0.000000,27.207244,0.000000,5.212268,-0.000000,-0.134283,-15.426903,-45.453192
2638.510000,5.910000,4.766927,0.000000,24.646480,0.000000,4.811533,0.000000,2.550463,-15.426903,-45.381778
2638.520000,5.920000,4.659729,-0.000000,20.153645,0.000000,2.165186,-0.000000,4.235525,-15.426903,-45.255618
2638.530000,5.930000,4.243081,0.000000,15.474171,0.000000,-0.109866,0.000000,4.513047,-15.426903,-45.228786
2638.540000,5.940000,3.797098,0.000000,12.092162,0.000000,-0.571455,-0.000000,4.136071,-15.426903,-45.264816
2638.550000,5.950000,3.431770,-0.000000,10.303896,0.000000,0.344689,-0.000000,3.995835,-15.426903,-45.277411
2638.560000,5.960000,3.150526,-0.000000,9.613449,0.000000,1.541519,0.000000,4.448024,-15.426903,-45.235227
2638.570000,5.970000,2.893916,-0.000000,9.447713,0.000000,2.381203,0.000000,5.389710,-15.426903,-45.132712
2638.580000,5.980000,2.626914,0.000000,9.465063,0.000000,2.793272,0.000000,6.596664,-15.426903,-44.972155
2638.590000,5.990000,2.348229,0.000000,9.526358,0.000000,2.914129,-0.000000,7.901676,-15.426903,-44.761302
2638.600000,6.000000,2.068747,0.000000,9.589389,0.000000,2.862234,0.000000,9.205440,-15.426903,-44.511465
2638.610000,6.010000,1.799024,0.000000,9.643631,0.000000,2.718186,0.000000,10.450026,-15.426903,-44.235819
2638.620000,6.020000,1.544567,0.000000,9.687642,0.000000,2.549142,0.000000,11.610753,-15.426903,-43.945433
2638.630000,6.030000,1.305186,0.000000,9.722787,0.000000,2.394039,-0.000000,12.690980,-15.426903,-43.645729
2638.640000,6.040000,1.079078,0.000000,9.750471,0.000000,2.240049,-0.000000,13.700983,-15.426903,-43.339286
2638.650000,6.050000,0.868395,0.000000,9.771489,0.000000,2.041570,0.000000,14.633125,-15.426903,-43.033502
2638.660000,6.060000,0.680136,0.000000,9.786394,0.000000,1.775152,0.000000,15.458797,-15.426903,-42.743845
2638.670000,6.070000,0.520985,0.000000,9.796156,0.000000,1.473794,0.000000,16.151484,-15.426903,-42.486942
2638.680000,6.080000,0.391409,0.000000,9.802188,0.000000,1.202737,-0.000000,16.711858,-15.426903,-42.269664
2638.690000,6.090000,0.285207,0.000000,9.805853,0.000000,1.003028,-0.000000,17.168751,-15.426903,-42.086158
2638.700000,6.100000,0.194702,0.000000,9.808068,0.000000,0.862880,0.000000,17.556407,-15.426903,-41.925926
2638.710000,6.110000,0.115945,0.000000,9.809315,0.000000,0.742065,0.000000,17.892473,-15.426903,-41.783610
2638.720000,6.120000,0.049121,0.000000,9.809877,0.000000,0.616312,-0.000000,18.176691,-15.426903,-41.660756
2638.730000,6.130000,-0.004973,0.000000,9.809999,0.000000,0.494043,0.000000,18.406139,-15.426903,-41.559893
2638.740000,6.140000,-0.047811,0.000000,9.809883,0.000000,0.395697,-0.000000,18.587443,-15.426903,-41.479123
2638.750000,6.150000,-0.082608,0.000000,9.809652,0.000000,0.326564,-0.000000,18.734462,-15.426903,-41.412928
2638.760000,6.160000,-0.111880,0.000000,9.809362,0.000000,0.272638,-0.000000,18.857957,-15.426903,-41.356839
2638.770000,6.170000,-0.136097,0.000000,9.809056,0.000000,0.217127,0.000000,18.959998,-15.426903,-41.310158
2638.780000,6.180000,-0.154477,0.000000,9.808784,0.000000,0.155804,-0.000000,19.037372,-15.426903,-41.274558
2638.790000,6.190000,-0.166662,0.000000,9.808584,0.000000,0.098512,-0.000000,19.088631,-15.426903,-41.250877
2638.800000,6.200000,-0.173802,0.000000,9.808460,0.000000,0.061179,0.000000,19.118656,-15.426903,-41.236970
2638.810000,6.210000,-0.178663,0.000000,9.808373,0.000000,0.056619,-0.000000,19.139091,-15.426903,-41.227489
2638.820000,6.220000,-0.184909,0.000000,9.808257,0.000000,0.086605,0.000000,19.165339,-15.426903,-41.215294
2638.830000,6.230000,-0.195652,0.000000,9.808049,0.000000,0.137552,0.000000,19.210472,-15.426903,-41.194277
2638.840000,6.240000,-0.211891,0.000000,9.807711,0.000000,0.186732,-0.000000,19.278652,-15.426903,-41.162413
2638.850000,6.250000,-0.232280,0.000000,9.807250,0.000000,0.219457,0.000000,19.364183,-15.426903,-41.122246
2638.860000,6.260000,-0.254936,0.000000,9.806687,0.000000,0.241989,0.000000,19.459134,-15.426903,-41.077400
2638.870000,6.270000,-0.279742,0.000000,9.806011,0.000000,0.273942,-0.000000,19.562978,-15.426903,-41.028046
2638.880000,6.280000,-0.308662,0.000000,9.805143,0.000000,0.325933,-0.000000,19.683898,-15.426903,-40.970170
2638.890000,6.290000,-0.343658,0.000000,9.803979,0.000000,0.387266,-0.000000,19.830009,-15.426903,-40.899651
2638.900000,6.300000,-0.384596,0.000000,9.802458,0.000000,0.439893,0.000000,20.000632,-15.426903,-40.816485
2638.910000,6.310000,-0.429898,0.000000,9.800576,0.000000,0.485166,0.000000,20.189067,-15.426903,-40.723608
2638.920000,6.320000,-0.479693,0.000000,9.798265,0.000000,0.551364,0.000000,20.395741,-15.426903,-40.620493
2638.930000,6.330000,-0.537944,0.000000,9.795239,0.000000,0.667430,-0.000000,20.636904,-15.426903,-40.498505
2638.940000,6.340000,-0.610440,0.000000,9.790989,0.000000,0.828108,-0.000000,20.936138,-15.426903,-40.344625
2638.950000,6.350000,-0.700095,0.000000,9.784987,0.000000,0.992584,0.000000,21.304794,-15.426903,-40.151170
2638.960000,6.360000,-0.804678,0.000000,9.776942,0.000000,1.123998,-0.000000,21.732882,-15.426903,-39.921079
2638.970000,6.370000,-0.919870,0.000000,9.766777,0.000000,1.226838,0.000000,22.201951,-15.426903,-39.662124
2638.980000,6.380000,-1.044312,0.000000,9.754256,0.000000,1.338745,0.000000,22.705800,-15.426903,-39.375847
2638.990000,6.390000,-1.181022,0.000000,9.738649,0.000000,1.486977,-0.000000,23.255847,-15.426903,-39.053505
2639.000000,6.400000,-1.333906,0.000000,9.718889,0.000000,1.660946,-0.000000,23.866650,-15.426903,-38.683248
2639.010000,6.410000,-1.503833,0.000000,9.694049,0.000000,1.833182,0.000000,24.540152,-15.426903,-38.259530
2639.020000,6.420000,-1.689279,0.000000,9.663459,0.000000,2.004895,0.000000,25.268640,-15.426903,-37.782357
2639.030000,6.430000,-1.891257,0.000000,9.625967,0.000000,2.220486,0.000000,26.054243,-15.426903,-37.244961
2639.040000,6.440000,-2.116660,0.000000,9.578928,0.000000,2.526024,-0.000000,26.921214,-15.426903,-36.623202
2639.050000,6.450000,-2.374998,0.000000,9.518166,0.000000,2.912902,0.000000,27.902030,-15.426903,-35.881575
2639.060000,6.460000,-2.670882,0.000000,9.439412,0.000000,3.315190,0.000000,29.008224,-15.426903,-34.993337
2639.070000,6.470000,-3.000522,0.000000,9.339859,0.000000,3.672840,0.000000,30.218480,-15.426903,-33.953706
2639.080000,6.480000,-3.356598,0.000000,9.217882,0.000000,3.991438,-0.000000,31.498728,-15.426903,-32.769510
2639.090000,6.490000,-3.736403,-0.000000,9.071883,0.000000,4.328503,0.000000,32.830520,-15.426903,-31.435134
2639.100000,6.500000,-4.145485,0.000000,8.902731,0.000000,4.720667,0.000000,34.214900,-15.426903,-29.922421
2639.110000,6.510000,-4.600508,0.000000,8.731555,0.000000,5.130046,-0.000000,35.648789,-15.426903,-28.198838
2639.120000,6.520000,-5.153019,-0.000000,8.651102,0.000000,5.459597,0.000000,37.100842,-15.426903,-26.259059
2639.130000,6.530000,-5.951676,-0.000000,8.906276,0.000000,5.611758,-0.000000,38.510767,-15.426903,-24.143974
2639.140000,6.540000,-7.290546,0.000000,9.921335,0.000000,5.536081,-0.000000,39.809713,-15.426903,-21.936213
2639.150000,6.550000,-9.462633,0.000000,12.112715,0.000000,5.246670,-0.000000,40.943871,-15.426903,-19.738543
2639.160000,6.560000,-12.282820,-0.000000,15.468709,0.000000,4.816445,-0.000000,41.889215,-15.426903,-17.643820
2639.170000,6.570000,-14.626964,0.000000,19.280261,0.000000,4.342412,0.000000,42.653097,-15.426903,-15.707451
2639.180000,6.580000,-14.761530,0.000000,22.516117,0.000000,3.883897,0.000000,43.262130,-15.426903,-13.942696
2639.190000,6.590000,-11.592829,-0.000000,24.669916,0.000000,3.421323,0.000000,43.743619,-15.426903,-12.349350
2639.200000,6.600000,-5.677038,0.000000,26.168145,0.000000,2.887716,0.000000,44.114342,-15.426903,-10.951505
2639.210000,6.610000,1.165511,0.000000,27.834817,0.000000,2.252703,0.000000,44.383598,-15.426903,-9.803413
2639.220000,6.620000,7.205703,-0.000000,30.078393,0.000000,1.573218,-0.000000,44.562856,-15.426903,-8.953353
2639.230000,6.630000,11.710478,0.000000,32.672948,0.000000,0.954323,-0.000000,44.670049,-15.426903,-8.402224
2639.240000,6.640000,14.805581,-0.000000,35.110296,0.000000,0.460923,-0.000000,44.725620,-15.426903,-8.101210
2639.250000,6.650000,16.895586,0.000000,36.973081,0.000000,0.073831,0.000000,44.745606,-15.426903,-7.990081
2639.260000,6.660000,18.303639,0.000000,38.051699,0.000000,-0.270490,0.000000,44.737534,-15.426903,-8.035158
2639.270000,6.670000,19.208989,-0.000000,38.292042,0.000000,-0.609475,-0.000000,44.701727,-15.426903,-8.232028
2639.280000,6.680000,19.689011,-0.000000,37.722995,0.000000,-0.930060,-0.000000,44.636267,-15.426903,-8.579880
2639.290000,6.690000,19.761151,0.000000,36.414655,0.000000,-1.205217,0.000000,44.540874,-15.426903,-9.062074
2639.300000,6.700000,19.418349,0.000000,34.455022,0.000000,-1.438148,-0.000000,44.416502,-15.426903,-9.653238
2639.310000,6.710000,18.657412,-0.000000,31.933728,0.000000,-1.662502,0.000000,44.261824,-15.426903,-10.339322
2639.320000,6.720000,17.486764,-0.000000,28.936667,0.000000,-1.905661,0.000000,44.071023,-15.426903,-11.124549
2639.330000,6.730000,15.915516,0.000000,25.551980,0.000000,-2.163095,0.000000,43.835683,-15.426903,-12.018468
2639.340000,6.740000,13.944778,0.000000,21.876221,0.000000,-2.413707,0.000000,43.548625,-15.426903,-13.020291
2639.350000,6.750000,11.573753,-0.000000,18.011853,0.000000,-2.656753,-0.000000,43.204593,-15.426903,-14.119979
2639.360000,6.760000,8.811230,0.000000,14.060401,0.000000,-2.924849,-0.000000,42.795558,-15.426903,-15.315055
2639.370000,6.770000,5.676886,0.000000,10.122120,0.000000,-3.252856,0.000000,42.305048,-15.426903,-16.622080
2639.380000,6.780000,2.192756,-0.000000,6.303490,0.000000,-3.634391,0.000000,41.709165,-15.426903,-18.065331
2639.390000,6.790000,-1.619659,-0.000000,2.720724,0.000000,-4.018490,-0.000000,40.985861,-15.426903,-19.651204
2639.400000,6.800000,-5.728938,-0.000000,-0.509244,0.000000,-4.356141,-0.000000,40.123722,-15.426903,-21.356442
2639.410000,6.810000,-10.081561,-0.000000,-3.281641,0.000000,-4.645655,0.000000,39.119867,-15.426903,-23.144042
2639.420000,6.820000,-14.601019,0.000000,-5.506451,0.000000,-4.925697,-0.000000,37.968378,-15.426903,-24.988256
2639.430000,6.830000,-19.194103,-0.000000,-7.102575,0.000000,-5.226646,0.000000,36.652792,-15.426903,-26.880914
2639.440000,6.840000,-23.752394,-0.000000,-7.999413,0.000000,-5.536462,0.000000,35.152407,-15.426903,-28.815256
2639.450000,6.850000,-28.148237,0.000000,-8.152030,0.000000,-5.815825,-0.000000,33.456150,-15.426903,-30.768436
2639.460000,6.860000,-32.235052,-0.000000,-7.555910,0.000000,-6.040746,-0.000000,31.568589,-15.426903,-32.702215
2639.470000,6.870000,-35.856051,-0.000000,-6.245845,0.000000,-6.223977,0.000000,29.501484,-15.426903,-34.578507
2639.480000,6.880000,-38.854007,0.000000,-4.284116,0.000000,-6.394492,-0.000000,27.261143,-15.426903,-36.370878
2639.490000,6.890000,-41.075676,0.000000,-1.757707,0.000000,-6.560610,-0.000000,24.847032,-15.426903,-38.060947
2639.500000,6.900000,-42.374993,-0.000000,1.207892,0.000000,-6.696910,-0.000000,22.264447,-15.426903,-39.627075
2639.510000,6.910000,-42.622149,-0.000000,4.436196,0.000000,-6.770497,0.000000,19.537791,-15.426903,-41.040047
2639.520000,6.920000,-41.715414,0.000000,7.714218,0.000000,-6.795138,0.000000,16.706741,-15.426903,-42.271686
2639.530000,6.930000,-39.579652,-0.000000,10.855303,0.000000,-6.884955,-0.000000,13.792800,-15.426903,-43.310153
2639.540000,6.940000,-36.130386,0.000000,13.810417,0.000000,-7.221628,0.000000,10.741390,-15.426903,-44.165974
2639.550000,6.950000,-31.212484,0.000000,16.738908,0.000000,-7.788603,0.000000,7.409851,-15.426903,-44.845343
2639.560000,6.960000,-24.622433,-0.000000,19.852608,0.000000,-7.941882,-0.000000,3.752109,-15.426903,-45.298260
2639.570000,6.970000,-16.441395,0.000000,23.033355,0.000000,-6.450444,-0.000000,0.215740,-15.426903,-45.452878
2639.580000,6.980000,-7.696081,0.000000,25.732910,0.000000,-2.643904,0.000000,-2.111344,-15.426903,-45.404327
2639.590000,6.990000,-0.462764,-0.000000,27.348178,0.000000,2.174889,-0.000000,-2.187919,-15.426903,-45.400701
2639.600000,7.000000,3.581826,-0.000000,27.207244,0.000000,5.212268,-0.000000,-0.134283,-15.426903,-45.453192
2639.610000,7.010000,4.766927,0.000000,24.646480,0.000000,4.811533,0.000000,2.550463,-15.426903,-45.381778
2639.620000,7.020000,4.659729,-0.000000,20.153645,0.000000,2.165186,0.000000,4.235525,-15.426903,-45.255618
2639.630000,7.030000,4.243081,-0.000000,15.474171,0.000000,-0.109866,0.000000,4.513047,-15.426903,-45.228786
2639.640000,7.040000,3.797098,0.000000,12.092162,0.000000,-0.571455,-0.000000,4.136071,-15.426903,-45.264816
2639.650000,7.050000,3.431770,0.000000,10.303896,0.000000,0.344689,0.000000,3.995835,-15.426903,-45.277411
2639.660000,7.060000,3.150526,0.000000,9.613449,0.000000,1.541519,-0.000000,4.448024,-15.426903,-45.235227
2639.670000,7.070000,2.893916,-0.000000,9.447713,0.000000,2.381203,-0.000000,5.389710,-15.426903,-45.132712
2639.680000,7.080000,2.626914,-0.000000,9.465063,0.000000,2.793272,0.000000,6.596664,-15.426903,-44.972155
2639.690000,7.090000,2.348229,0.000000,9.526358,0.000000,2.914129,-0.000000,7.901676,-15.426903,-44.761302
2639.700000,7.100000,2.068747,0.000000,9.589389,0.000000,2.862234,-0.000000,9.205440,-15.426903,-44.511465
2639.710000,7.110000,1.799024,0.000000,9.643631,0.000000,2.718186,0.000000,10.450026,-15.426903,-44.235819
2639.720000,7.120000,1.544567,0.000000,9.687642,0.000000,2.549142,0.000000,11.610753,-15.426903,-43.945433
2639.730000,7.130000,1.305186,0.000000,9.722787,0.000000,2.394039,-0.000000,12.690980,-15.426903,-43.645729
2639.740000,7.140000,1.079078,0.000000,9.750471,0.000000,2.240049,-0.000000,13.700983,-15.426903,-43.339286
2639.750000,7.150000,0.868395,0.000000,9.771489,0.000000,2.041570,0.000000,14.633125,-15.426903,-43.033502
2639.760000,7.160000,0.680136,0.000000,9.786394,0.000000,1.775152,0.000000,15.458797,-15.426903,-42.743845
2639.770000,7.170000,0.520985,0.000000,9.796156,0.000000,1.473794,0.000000,16.151484,-15.426903,-42.486942
2639.780000,7.180000,0.391409,0.000000,9.802188,0.000000,1.202737,-0.000000,16.711858,-15.426903,-42.269664
2639.790000,7.190000,0.285207,0.000000,9.805853,0.000000,1.003028,-0.000000,17.168751,-15.426903,-42.086158
2639.800000,7.200000,0.194702,0.000000,9.808068,0.000000,0.862880,0.000000,17.556407,-15.426903,-41.925926
2639.810000,7.210000,0.115945,0.000000,9.809315,0.000000,0.742065,0.000000,17.892473,-15.426903,-41.783610
2639.820000,7.220000,0.049121,0.000000,9.809877,0.000000,0.616312,-0.000000,18.176691,-15.426903,-41.660756
2639.830000,7.230000,-0.004973,0.000000,9.809999,0.000000,0.494043,0.000000,18.406139,-15.426903,-41.559893
2639.840000,7.240000,-0.047811,0.000000,9.809883,0.000000,0.395697,-0.000000,18.587443,-15.426903,-41.479123
2639.850000,7.250000,-0.082608,0.000000,9.809652,0.000000,0.326564,-0.000000,18.734462,-15.426903,-41.412928
2639.860000,7.260000,-0.111880,0.000000,9.809362,0.000000,0.272638,-0.000000,18.857957,-15.426903,-41.356839
2639.870000,7.270000,-0.136097,0.000000,9.809056,0.000000,0.217127,0.000000,18.959998,-15.426903,-41.310158
2639.880000,7.280000,-0.154477,0.000000,9.808784,0.000000,0.155804,-0.000000,19.037372,-15.426903,-41.274558
2639.890000,7.290000,-0.166662,0.000000,9.808584,0.000000,0.098512,-0.000000,19.088631,-15.426903,-41.250877
2639.900000,7.300000,-0.173802,0.000000,9.808460,0.000000,0.061179,0.000000,19.118656,-15.426903,-41.236970
2639.910000,7.310000,-0.178663,0.000000,9.808373,0.000000,0.056619,-0.000000,19.139091,-15.426903,-41.227489
2639.920000,7.320000,-0.184909,0.000000,9.808257,0.000000,0.086605,0.000000,19.165339,-15.426903,-41.215294
2639.930000,7.330000,-0.195652,0.000000,9.808049,0.000000,0.137552,0.000000,19.210472,-15.426903,-41.194277
2639.940000,7.340000,-0.211891,0.000000,9.807711,0.000000,0.186732,-0.000000,19.278652,-15.426903,-41.162413
2639.950000,7.350000,-0.232280,0.000000,9.807250,0.000000,0.219457,0.000000,19.364183,-15.426903,-41.122246
2639.960000,7.360000,-0.254936,0.000000,9.806687,0.000000,0.241989,0.000000,19.459134,-15.426903,-41.077400
2639.970000,7.370000,-0.279742,0.000000,9.806011,0.000000,0.273942,-0.000000,19.562978,-15.426903,-41.028046
2639.980000,7.380000,-0.308662,0.000000,9.805143,0.000000,0.325933,-0.000000,19.683898,-15.426903,-40.970170
2639.990000,7.390000,-0.343658,0.000000,9.803979,0.000000,0.387266,-0.000000,19.830009,-15.426903,-40.899651
2640.000000,7.400000,-0.384596,0.000000,9.802458,0.000000,0.439893,0.000000,20.000632,-15.426903,-40.816485
2640.010000,7.410000,-0.429898,0.000000,9.800576,0.000000,0.485166,0.000000,20.189067,-15.426903,-40.723608
2640.020000,7.420000,-0.479693,0.000000,9.798265,0.000000,0.551364,0.000000,20.395741,-15.426903,-40.620493
2640.030000,7.430000,-0.537944,0.000000,9.795239,0.000000,0.667430,-0.000000,20.636904,-15.426903,-40.498505
2640.040000,7.440000,-0.610440,0.000000,9.790989,0.000000,0.828108,-0.000000,20.936138,-15.426903,-40.344625
2640.050000,7.450000,-0.700095,0.000000,9.784987,0.000000,0.992584,0.000000,21.304794,-15.426903,-40.151170
2640.060000,7.460000,-0.804678,0.000000,9.776942,0.000000,1.123998,-0.000000,21.732882,-15.426903,-39.921079
2640.070000,7.470000,-0.919870,0.000000,9.766777,0.000000,1.226838,0.000000,22.201951,-15.426903,-39.662124
2640.080000,7.480000,-1.044312,0.000000,9.754256,0.000000,1.338745,0.000000,22.705800,-15.426903,-39.375847
2640.090000,7.490000,-1.181022,0.000000,9.738649,0.000000,1.486977,-0.000000,23.255847,-15.426903,-39.053505
2640.100000,7.500000,-1.333906,0.000000,9.718889,0.000000,1.660946,-0.000000,23.866650,-15.426903,-38.683248
2640.110000,7.510000,-1.503833,0.000000,9.694049,0.000000,1.833182,0.000000,24.540152,-15.426903,-38.259530
2640.120000,7.520000,-1.689279,0.000000,9.663459,0.000000,2.004895,0.000000,25.268640,-15.426903,-37.782357
2640.130000,7.530000,-1.891257,0.000000,9.625967,0.000000,2.220486,0.000000,26.054243,-15.426903,-37.244961
2640.140000,7.540000,-2.116660,0.000000,9.578928,0.000000,2.526024,-0.000000,26.921214,-15.426903,-36.623202
2640.150000,7.550000,-2.374998,0.000000,9.518166,0.000000,2.912902,0.000000,27.902030,-15.426903,-35.881575
2640.160000,7.560000,-2.670882,0.000000,9.439412,0.000000,3.315190,-0.000000,29.008224,-15.426903,-34.993337
2640.170000,7.570000,-3.000522,0.000000,9.339859,0.000000,3.672840,-0.000000,30.218480,-15.426903,-33.953706
2640.180000,7.580000,-3.356598,0.000000,9.217882,0.000000,3.991438,-0.000000,31.498728,-15.426903,-32.769510
2640.190000,7.590000,-3.736403,0.000000,9.071883,0.000000,4.328503,-0.000000,32.830520,-15.426903,-31.435134
2640.200000,7.600000,-4.145485,0.000000,8.902731,0.000000,4.720667,0.000000,34.214900,-15.426903,-29.922421
2640.210000,7.610000,-4.600508,-0.000000,8.731555,0.000000,5.130046,0.000000,35.648789,-15.426903,-28.198838
2640.220000,7.620000,-5.153019,-0.000000,8.651102,0.000000,5.459597,0.000000,37.100842,-15.426903,-26.259059
2640.230000,7.630000,-5.951676,-0.000000,8.906276,0.000000,5.611758,-0.000000,38.510767,-15.426903,-24.143974
2640.240000,7.640000,-7.290546,0.000000,9.921335,0.000000,5.536081,-0.000000,39.809713,-15.426903,-21.936213
2640.250000,7.650000,-9.462633,0.000000,12.112715,0.000000,5.246670,-0.000000,40.943871,-15.426903,-19.738543
2640.260000,7.660000,-12.282820,0.000000,15.468709,0.000000,4.816445,-0.000000,41.889215,-15.426903,-17.643820
2640.270000,7.670000,-14.626964,-0.000000,19.280261,0.000000,4.342412,0.000000,42.653097,-15.426903,-15.707451
2640.280000,7.680000,-14.761530,0.000000,22.516117,0.000000,3.883897,0.000000,43.262130,-15.426903,-13.942696
2640.290000,7.690000,-11.592829,0.000000,24.669916,0.000000,3.421323,0.000000,43.743619,-15.426903,-12.349350
2640.300000,7.700000,-5.677038,0.000000,26.168145,0.000000,2.887716,-0.000000,44.114342,-15.426903,-10.951505
2640.310000,7.710000,1.165511,-0.000000,27.834817,0.000000,2.252703,0.000000,44.383598,-15.426903,-9.803413
2640.320000,7.720000,7.205703,0.000000,30.078393,0.000000,1.573218,0.000000,44.562856,-15.426903,-8.953353
2640.330000,7.730000,11.710478,0.000000,32.672948,0.000000,0.954323,-0.000000,44.670049,-15.426903,-8.402224
2640.340000,7.740000,14.805581,-0.000000,35.110296,0.000000,0.460923,-0.000000,44.725620,-15.426903,-8.101210
2640.350000,7.750000,16.895586,0.000000,36.973081,0.000000,0.073831,-0.000000,44.745606,-15.426903,-7.990081
2640.360000,7.760000,18.303639,0.000000,38.051699,0.000000,-0.270490,0.000000,44.737534,-15.426903,-8.035158
2640.370000,7.770000,19.208989,-0.000000,38.292042,0.000000,-0.609475,0.000000,44.701727,-15.426903,-8.232028
2640.380000,7.780000,19.689011,-0.000000,37.722995,0.000000,-0.930060,0.000000,44.636267,-15.426903,-8.579880
2640.390000,7.790000,19.761151,0.000000,36.414655,0.000000,-1.205217,0.000000,44.540874,-15.426903,-9.062074
2640.400000,7.800000,19.418349,0.000000,34.455022,0.000000,-1.438148,0.000000,44.416502,-15.426903,-9.653238
2640.410000,7.810000,18.657412,-0.000000,31.933728,0.000000,-1.662502,-0.000000,44.261824,-15.426903,-10.339322
2640.420000,7.820000,17.486764,-0.000000,28.936667,0.000000,-1.905661,-0.000000,44.071023,-15.426903,-11.124549
2640.430000,7.830000,15.915516,-0.000000,25.551980,0.000000,-2.163095,-0.000000,43.835683,-15.426903,-12.018468
2640.440000,7.840000,13.944778,0.000000,21.876221,0.000000,-2.413707,0.000000,43.548625,-15.426903,-13.020291
2640.450000,7.850000,11.573753,0.000000,18.011853,0.000000,-2.656753,0.000000,43.204593,-15.426903,-14.119979
2640.460000,7.860000,8.811230,-0.000000,14.060401,0.000000,-2.924849,-0.000000,42.795558,-15.426903,-15.315055
2640.470000,7.870000,5.676886,-0.000000,10.122120,0.000000,-3.252856,-0.000000,42.305048,-15.426903,-16.622080
2640.480000,7.880000,2.192756,-0.000000,6.303490,0.000000,-3.634391,0.000000,41.709165,-15.426903,-18.065331
2640.490000,7.890000,-1.619659,0.000000,2.720724,0.000000,-4.018490,-0.000000,40.985861,-15.426903,-19.651204
2640.500000,7.900000,-5.728938,0.000000,-0.509244,0.000000,-4.356141,0.000000,40.123722,-15.426903,-21.356442
2640.510000,7.910000,-10.081561,-0.000000,-3.281641,0.000000,-4.645655,0.000000,39.119867,-15.426903,-23.144042
2640.520000,7.920000,-14.601019,0.000000,-5.506451,0.000000,-4.925697,-0.000000,37.968378,-15.426903,-24.988256
2640.530000,7.930000,-19.194103,-0.000000,-7.102575,0.000000,-5.226646,0.000000,36.652792,-15.426903,-26.880914
2640.540000,7.940000,-23.752394,-0.000000,-7.999413,0.000000,-5.536462,-0.000000,35.152407,-15.426903,-28.815256
2640.550000,7.950000,-28.148237,-0.000000,-8.152030,0.000000,-5.815825,-0.000000,33.456150,-15.426903,-30.768436
2640.560000,7.960000,-32.235052,-0.000000,-7.555910,0.000000,-6.040746,0.000000,31.568589,-15.426903,-32.702215
2640.570000,7.970000,-35.856051,0.000000,-6.245845,0.000000,-6.223977,-0.000000,29.501484,-15.426903,-34.578507
2640.580000,7.980000,-38.854007,0.000000,-4.284116,0.000000,-6.394492,0.000000,27.261143,-15.426903,-36.370878
2640.590000,7.990000,-41.075676,-0.000000,-1.757707,0.000000,-6.560610,0.000000,24.847032,-15.426903,-38.060947
2640.600000,8.000000,-42.374993,0.000000,1.207892,0.000000,-6.696910,0.000000,22.264447,-15.426903,-39.627075
2640.610000,8.010000,-42.622149,0.000000,4.436196,0.000000,-6.770497,0.000000,19.537791,-15.426903,-41.040047
2640.620000,8.020000,-41.715414,-0.000000,7.714218,0.000000,-6.795138,-0.000000,16.706741,-15.426903,-42.271686
2640.630000,8.030000,-39.579652,-0.000000,10.855303,0.000000,-6.884955,-0.000000,13.792800,-15.426903,-43.310153
2640.640000,8.040000,-36.130386,0.000000,13.810417,0.000000,-7.221628,-0.000000,10.741390,-15.426903,-44.165974
2640.650000,8.050000,-31.212484,0.000000,16.738908,0.000000,-7.788603,-0.000000,7.409851,-15.426903,-44.845343
2640.660000,8.060000,-24.622433,-0.000000,19.852608,0.000000,-7.941882,0.000000,3.752109,-15.426903,-45.298260
2640.670000,8.070000,-16.441395,-0.000000,23.033355,0.000000,-6.450444,0.000000,0.215740,-15.426903,-45.452878
2640.680000,8.080000,-7.696081,0.000000,25.732910,0.000000,-2.643904,-0.000000,-2.111344,-15.426903,-45.404327
2640.690000,8.090000,-0.462764,0.000000,27.348178,0.000000,2.174889,-0.000000,-2.187919,-15.426903,-45.400701
2640.700000,8.100000,3.581826,0.000000,27.207244,0.000000,5.212268,0.000000,-0.134283,-15.426903,-45.453192
2640.710000,8.110000,4.766927,-0.000000,24.646480,0.000000,4.811533,0.000000,2.550463,-15.426903,-45.381778
2640.720000,8.120000,4.659729,-0.000000,20.153645,0.000000,2.165186,0.000000,4.235525,-15.426903,-45.255618
2640.730000,8.130000,4.243081,0.000000,15.474171,0.000000,-0.109866,0.000000,4.513047,-15.426903,-45.228786
2640.740000,8.140000,3.797098,-0.000000,12.092162,0.000000,-0.571455,-0.000000,4.136071,-15.426903,-45.264816
2640.750000,8.150000,3.431770,-0.000000,10.303896,0.000000,0.344689,0.000000,3.995835,-15.426903,-45.277411
2640.760000,8.160000,3.150526,0.000000,9.613449,0.000000,1.541519,0.000000,4.448024,-15.426903,-45.235227
2640.770000,8.170000,2.893916,-0.000000,9.447713,0.000000,2.381203,0.000000,5.389710,-15.426903,-45.132712
2640.780000,8.180000,2.626914,-0.000000,9.465063,0.000000,2.793272,-0.000000,6.596664,-15.426903,-44.972155
2640.790000,8.190000,2.348229,0.000000,9.526358,0.000000,2.914129,-0.000000,7.901676,-15.426903,-44.761302
2640.800000,8.200000,2.068747,0.000000,9.589389,0.000000,2.862234,-0.000000,9.205440,-15.426903,-44.511465
2640.810000,8.210000,1.799024,0.000000,9.643631,0.000000,2.718186,-0.000000,10.450026,-15.426903,-44.235819
2640.820000,8.220000,1.544567,0.000000,9.687642,0.000000,2.549142,0.000000,11.610753,-15.426903,-43.945433
2640.830000,8.230000,1.305186,0.000000,9.722787,0.000000,2.394039,-0.000000,12.690980,-15.426903,-43.645729
2640.840000,8.240000,1.079078,0.000000,9.750471,0.000000,2.240049,-0.000000,13.700983,-15.426903,-43.339286
2640.850000,8.250000,0.868395,0.000000,9.771489,0.000000,2.041570,0.000000,14.633125,-15.426903,-43.033502
2640.860000,8.260000,0.680136,0.000000,9.786394,0.000000,1.775152,0.000000,15.458797,-15.426903,-42.743845
2640.870000,8.270000,0.520985,0.000000,9.796156,0.000000,1.473794,0.000000,16.151484,-15.426903,-42.486942
2640.880000,8.280000,0.391409,0.000000,9.802188,0.000000,1.202737,0.000000,16.711858,-15.426903,-42.269664
2640.890000,8.290000,0.285207,0.000000,9.805853,0.000000,1.003028,-0.000000,17.168751,-15.426903,-42.086158
2640.900000,8.300000,0.194702,0.000000,9.808068,0.000000,0.862880,0.000000,17.556407,-15.426903,-41.925926
2640.910000,8.310000,0.115945,0.000000,9.809315,0.000000,0.742065,0.000000,17.892473,-15.426903,-41.783610
2640.920000,8.320000,0.049121,0.000000,9.809877,0.000000,0.616312,-0.000000,18.176691,-15.426903,-41.660756
2640.930000,8.330000,-0.004973,0.000000,9.809999,0.000000,0.494043,0.000000,18.406139,-15.426903,-41.559893
2640.940000,8.340000,-0.047811,0.000000,9.809883,0.000000,0.395697,-0.000000,18.587443,-15.426903,-41.479123
2640.950000,8.350000,-0.082608,0.000000,9.809652,0.000000,0.326564,-0.000000,18.734462,-15.426903,-41.412928
2640.960000,8.360000,-0.111880,0.000000,9.809362,0.000000,0.272638,-0.000000,18.857957,-15.426903,-41.356839
2640.970000,8.370000,-0.136097,0.000000,9.809056,0.000000,0.217127,0.000000,18.959998,-15.426903,-41.310158
2640.980000,8.380000,-0.154477,0.000000,9.808784,0.000000,0.155804,-0.000000,19.037372,-15.426903,-41.274558
2640.990000,8.390000,-0.166662,0.000000,9.808584,0.000000,0.098512,-0.000000,19.088631,-15.426903,-41.250877
2641.000000,8.400000,-0.173802,0.000000,9.808460,0.000000,0.061179,0.000000,19.118656,-15.426903,-41.236970
2641.010000,8.410000,-0.178663,0.000000,9.808373,0.000000,0.056619,-0.000000,19.139091,-15.426903,-41.227489
2641.020000,8.420000,-0.184909,0.000000,9.808257,0.000000,0.086605,0.000000,19.165339,-15.426903,-41.215294
2641.030000,8.430000,-0.195652,0.000000,9.808049,0.000000,0.137552,0.000000,19.210472,-15.426903,-41.194277
2641.040000,8.440000,-0.211891,0.000000,9.807711,0.000000,0.186732,-0.000000,19.278652,-15.426903,-41.162413
2641.050000,8.450000,-0.232280,0.000000,9.807250,0.000000,0.219457,0.000000,19.364183,-15.426903,-41.122246
2641.060000,8.460000,-0.254936,0.000000,9.806687,0.000000,0.241989,0.000000,19.459134,-15.426903,-41.077400
2641.070000,8.470000,-0.279742,0.000000,9.806011,0.000000,0.273942,-0.000000,19.562978,-15.426903,-41.028046
2641.080000,8.480000,-0.308662,0.000000,9.805143,0.000000,0.325933,-0.000000,19.683898,-15.426903,-40.970170
2641.090000,8.490000,-0.343658,0.000000,9.803979,0.000000,0.387266,-0.000000,19.830009,-15.426903,-40.899651
2641.100000,8.500000,-0.384596,0.000000,9.802458,0.000000,0.439893,0.000000,20.000632,-15.426903,-40.816485
2641.110000,8.510000,-0.429898,0.000000,9.800576,0.000000,0.485166,0.000000,20.189067,-15.426903,-40.723608
2641.120000,8.520000,-0.479693,0.000000,9.798265,0.000000,0.551364,0.000000,20.395741,-15.426903,-40.620493
2641.130000,8.530000,-0.537944,0.000000,9.795239,0.000000,0.667430,-0.000000,20.636904,-15.426903,-40.498505
2641.140000,8.540000,-0.610440,0.000000,9.790989,0.000000,0.828108,-0.000000,20.936138,-15.426903,-40.344625
2641.150000,8.550000,-0.700095,0.000000,9.784987,0.000000,0.992584,0.000000,21.304794,-15.426903,-40.151170
2641.160000,8.560000,-0.804678,0.000000,9.776942,0.000000,1.123998,0.000000,21.732882,-15.426903,-39.921079
2641.170000,8.570000,-0.919870,0.000000,9.766777,0.000000,1.226838,0.000000,22.201951,-15.426903,-39.662124
2641.180000,8.580000,-1.044312,0.000000,9.754256,0.000000,1.338745,-0.000000,22.705800,-15.426903,-39.375847
2641.190000,8.590000,-1.181022,0.000000,9.738649,0.000000,1.486977,-0.000000,23.255847,-15.426903,-39.053505
2641.200000,8.600000,-1.333906,0.000000,9.718889,0.000000,1.660946,0.000000,23.866650,-15.426903,-38.683248
2641.210000,8.610000,-1.503833,0.000000,9.694049,0.000000,1.833182,0.000000,24.540152,-15.426903,-38.259530
2641.220000,8.620000,-1.689279,0.000000,9.663459,0.000000,2.004895,0.000000,25.268640,-15.426903,-37.782357
2641.230000,8.630000,-1.891257,0.000000,9.625967,0.000000,2.220486,0.000000,26.054243,-15.426903,-37.244961
2641.240000,8.640000,-2.116660,0.000000,9.578928,0.000000,2.526024,-0.000000,26.921214,-15.426903,-36.623202
2641.250000,8.650000,-2.374998,0.000000,9.518166,0.000000,2.912902,0.000000,27.902030,-15.426903,-35.881575
2641.260000,8.660000,-2.670882,0.000000,9.439412,0.000000,3.315190,-0.000000,29.008224,-15.426903,-34.993337
2641.270000,8.670000,-3.000522,0.000000,9.339859,0.000000,3.672840,0.000000,30.218480,-15.426903,-33.953706
2641.280000,8.680000,-3.356598,0.000000,9.217882,0.000000,3.991438,0.000000,31.498728,-15.426903,-32.769510
2641.290000,8.690000,-3.736403,-0.000000,9.071883,0.000000,4.328503,-0.000000,32.830520,-15.426903,-31.435134
2641.300000,8.700000,-4.145485,0.000000,8.902731,0.000000,4.720667,0.000000,34.214900,-15.426903,-29.922421
2641.310000,8.710000,-4.600508,0.000000,8.731555,0.000000,5.130046,0.000000,35.648789,-15.426903,-28.198838
2641.320000,8.720000,-5.153019,-0.000000,8.651102,0.000000,5.459597,-0.000000,37.100842,-15.426903,-26.259059
2641.330000,8.730000,-5.951676,0.000000,8.906276,0.000000,5.611758,-0.000000,38.510767,-15.426903,-24.143974
2641.340000,8.740000,-7.290546,0.000000,9.921335,0.000000,5.536081,-0.000000,39.809713,-15.426903,-21.936213
2641.350000,8.750000,-9.462633,0.000000,12.112715,0.000000,5.246670,0.000000,40.943871,-15.426903,-19.738543
2641.360000,8.760000,-12.282820,-0.000000,15.468709,0.000000,4.816445,-0.000000,41.889215,-15.426903,-17.643820
2641.370000,8.770000,-14.626964,-0.000000,19.280261,0.000000,4.342412,0.000000,42.653097,-15.426903,-15.707451
2641.380000,8.780000,-14.761530,0.000000,22.516117,0.000000,3.883897,-0.000000,43.262130,-15.426903,-13.942696
2641.390000,8.790000,-11.592829,0.000000,24.669916,0.000000,3.421323,-0.000000,43.743619,-15.426903,-12.349350
2641.400000,8.800000,-5.677038,0.000000,26.168145,0.000000,2.887716,0.000000,44.114342,-15.426903,-10.951505
2641.410000,8.810000,1.165511,-0.000000,27.834817,0.000000,2.252703,-0.000000,44.383598,-15.426903,-9.803413
2641.420000,8.820000,7.205703,-0.000000,30.078393,0.000000,1.573218,0.000000,44.562856,-15.426903,-8.953353
2641.430000,8.830000,11.710478,-0.000000,32.672948,0.000000,0.954323,-0.000000,44.670049,-15.426903,-8.402224
2641.440000,8.840000,14.805581,0.000000,35.110296,0.000000,0.460923,-0.000000,44.725620,-15.426903,-8.101210
2641.450000,8.850000,16.895586,-0.000000,36.973081,0.000000,0.073831,0.000000,44.745606,-15.426903,-7.990081
2641.460000,8.860000,18.303639,-0.000000,38.051699,0.000000,-0.270490,0.000000,44.737534,-15.426903,-8.035158
2641.470000,8.870000,19.208989,0.000000,38.292042,0.000000,-0.609475,-0.000000,44.701727,-15.426903,-8.232028
2641.480000,8.880000,19.689011,0.000000,37.722995,0.000000,-0.930060,0.000000,44.636267,-15.426903,-8.579880
2641.490000,8.890000,19.761151,-0.000000,36.414655,0.000000,-1.205217,0.000000,44.540874,-15.426903,-9.062074
2641.500000,8.900000,19.418349,-0.000000,34.455022,0.000000,-1.438148,-0.000000,44.416502,-15.426903,-9.653238
2641.510000,8.910000,18.657412,0.000000,31.933728,0.000000,-1.662502,0.000000,44.261824,-15.426903,-10.339322
2641.520000,8.920000,17.486764,-0.000000,28.936667,0.000000,-1.905661,0.000000,44.071023,-15.426903,-11.124549
2641.530000,8.930000,15.915516,-0.000000,25.551980,0.000000,-2.163095,-0.000000,43.835683,-15.426903,-12.018468
2641.540000,8.940000,13.944778,0.000000,21.876221,0.000000,-2.413707,0.000000,43.548625,-15.426903,-13.020291
2641.550000,8.950000,11.573753,-0.000000,18.011853,0.000000,-2.656753,-0.000000,43.204593,-15.426903,-14.119979
2641.560000,8.960000,8.811230,0.000000,14.060401,0.000000,-2.924849,-0.000000,42.795558,-15.426903,-15.315055
2641.570000,8.970000,5.676886,0.000000,10.122120,0.000000,-3.252856,0.000000,42.305048,-15.426903,-16.622080
2641.580000,8.980000,2.192756,-0.000000,6.303490,0.000000,-3.634391,0.000000,41.709165,-15.426903,-18.065331
2641.590000,8.990000,-1.619659,-0.000000,2.720724,0.000000,-4.018490,0.000000,40.985861,-15.426903,-19.651204
2641.600000,9.000000,-5.728938,-0.000000,-0.509244,0.000000,-4.356141,0.000000,40.123722,-15.426903,-21.356442
2641.610000,9.010000,-10.081561,0.000000,-3.281641,0.000000,-4.645655,0.000000,39.119867,-15.426903,-23.144042
2641.620000,9.020000,-14.601019,0.000000,-5.506451,0.000000,-4.925697,-0.000000,37.968378,-15.426903,-24.988256
2641.630000,9.030000,-19.194103,0.000000,-7.102575,0.000000,-5.226646,-0.000000,36.652792,-15.426903,-26.880914
2641.640000,9.040000,-23.752394,0.000000,-7.999413,0.000000,-5.536462,-0.000000,35.152407,-15.426903,-28.815256
2641.650000,9.050000,-28.148237,-0.000000,-8.152030,0.000000,-5.815825,0.000000,33.456150,-15.426903,-30.768436
2641.660000,9.060000,-32.235052,-0.000000,-7.555910,0.000000,-6.040746,0.000000,31.568589,-15.426903,-32.702215
2641.670000,9.070000,-35.856051,0.000000,-6.245845,0.000000,-6.223977,-0.000000,29.501484,-15.426903,-34.578507
2641.680000,9.080000,-38.854007,-0.000000,-4.284116,0.000000,-6.394492,-0.000000,27.261143,-15.426903,-36.370878
2641.690000,9.090000,-41.075676,-0.000000,-1.757707,0.000000,-6.560610,0.000000,24.847032,-15.426903,-38.060947
2641.700000,9.100000,-42.374993,0.000000,1.207892,0.000000,-6.696910,-0.000000,22.264447,-15.426903,-39.627075
2641.710000,9.110000,-42.622149,-0.000000,4.436196,0.000000,-6.770497,0.000000,19.537791,-15.426903,-41.040047
2641.720000,9.120000,-41.715414,-0.000000,7.714218,0.000000,-6.795138,0.000000,16.706741,-15.426903,-42.271686
2641.730000,9.130000,-39.579652,0.000000,10.855303,0.000000,-6.884955,-0.000000,13.792800,-15.426903,-43.310153
2641.740000,9.140000,-36.130386,-0.000000,13.810417,0.000000,-7.221628,0.000000,10.741390,-15.426903,-44.165974
2641.750000,9.150000,-31.212484,0.000000,16.738908,0.000000,-7.788603,0.000000,7.409851,-15.426903,-44.845343
2641.760000,9.160000,-24.622433,0.000000,19.852608,0.000000,-7.941882,0.000000,3.752109,-15.426903,-45.298260
2641.770000,9.170000,-16.441395,-0.000000,23.033355,0.000000,-6.450444,-0.000000,0.215740,-15.426903,-45.452878
2641.780000,9.180000,-7.696081,0.000000,25.732910,0.000000,-2.643904,-0.000000,-2.111344,-15.426903,-45.404327
2641.790000,9.190000,-0.462764,0.000000,27.348178,0.000000,2.174889,0.000000,-2.187919,-15.426903,-45.400701
2641.800000,9.200000,3.581826,-0.000000,27.207244,0.000000,5.212268,-0.000000,-0.134283,-15.426903,-45.453192
2641.810000,9.210000,4.766927,-0.000000,24.646480,0.000000,4.811533,-0.000000,2.550463,-15.426903,-45.381778
2641.820000,9.220000,4.659729,0.000000,20.153645,0.000000,2.165186,0.000000,4.235525,-15.426903,-45.255618
2641.830000,9.230000,4.243081,0.000000,15.474171,0.000000,-0.109866,-0.000000,4.513047,-15.426903,-45.228786
2641.840000,9.240000,3.797098,-0.000000,12.092162,0.000000,-0.571455,0.000000,4.136071,-15.426903,-45.264816
2641.850000,9.250000,3.431770,0.000000,10.303896,0.000000,0.344689,0.000000,3.995835,-15.426903,-45.277411
2641.860000,9.260000,3.150526,0.000000,9.613449,0.000000,1.541519,-0.000000,4.448024,-15.426903,-45.235227
2641.870000,9.270000,2.893916,0.000000,9.447713,0.000000,2.381203,0.000000,5.389710,-15.426903,-45.132712
2641.880000,9.280000,2.626914,-0.000000,9.465063,0.000000,2.793272,0.000000,6.596664,-15.426903,-44.972155
2641.890000,9.290000,2.348229,-0.000000,9.526358,0.000000,2.914129,-0.000000,7.901676,-15.426903,-44.761302
2641.900000,9.300000,2.068747,0.000000,9.589389,0.000000,2.862234,-0.000000,9.205440,-15.426903,-44.511465
2641.910000,9.310000,1.799024,0.000000,9.643631,0.000000,2.718186,0.000000,10.450026,-15.426903,-44.235819
2641.920000,9.320000,1.544567,0.000000,9.687642,0.000000,2.549142,0.000000,11.610753,-15.426903,-43.945433
2641.930000,9.330000,1.305186,0.000000,9.722787,0.000000,2.394039,0.000000,12.690980,-15.426903,-43.645729
2641.940000,9.340000,1.079078,0.000000,9.750471,0.000000,2.240049,-0.000000,13.700983,-15.426903,-43.339286
2641.950000,9.350000,0.868395,0.000000,9.771489,0.000000,2.041570,-0.000000,14.633125,-15.426903,-43.033502
2641.960000,9.360000,0.680136,0.000000,9.786394,0.000000,1.775152,0.000000,15.458797,-15.426903,-42.743845
2641.970000,9.370000,0.520985,0.000000,9.796156,0.000000,1.473794,0.000000,16.151484,-15.426903,-42.486942
2641.980000,9.380000,0.391409,0.000000,9.802188,0.000000,1.202737,-0.000000,16.711858,-15.426903,-42.269664
2641.990000,9.390000,0.285207,0.000000,9.805853,0.000000,1.003028,-0.000000,17.168751,-15.426903,-42.086158
2642.000000,9.400000,0.194702,0.000000,9.808068,0.000000,0.862880,0.000000,17.556407,-15.426903,-41.925926
2642.010000,9.410000,0.115945,0.000000,9.809315,0.000000,0.742065,0.000000,17.892473,-15.426903,-41.783610
2642.020000,9.420000,0.049121,0.000000,9.809877,0.000000,0.616312,-0.000000,18.176691,-15.426903,-41.660756
2642.030000,9.430000,-0.004973,0.000000,9.809999,0.000000,0.494043,0.000000,18.406139,-15.426903,-41.559893
2642.040000,9.440000,-0.047811,0.000000,9.809883,0.000000,0.395697,-0.000000,18.587443,-15.426903,-41.479123
2642.050000,9.450000,-0.082608,0.000000,9.809652,0.000000,0.326564,-0.000000,18.734462,-15.426903,-41.412928
2642.060000,9.460000,-0.111880,0.000000,9.809362,0.000000,0.272638,-0.000000,18.857957,-15.426903,-41.356839
2642.070000,9.470000,-0.136097,0.000000,9.809056,0.000000,0.217127,0.000000,18.959998,-15.426903,-41.310158
2642.080000,9.480000,-0.154477,0.000000,9.808784,0.000000,0.155804,-0.000000,19.037372,-15.426903,-41.274558
2642.090000,9.490000,-0.166662,0.000000,9.808584,0.000000,0.098512,-0.000000,19.088631,-15.426903,-41.250877
2642.100000,9.500000,-0.173802,0.000000,9.808460,0.000000,0.061179,0.000000,19.118656,-15.426903,-41.236970
2642.110000,9.510000,-0.178663,0.000000,9.808373,0.000000,0.056619,-0.000000,19.139091,-15.426903,-41.227489
2642.120000,9.520000,-0.184909,0.000000,9.808257,0.000000,0.086605,0.000000,19.165339,-15.426903,-41.215294
2642.130000,9.530000,-0.195652,0.000000,9.808049,0.000000,0.137552,0.000000,19.210472,-15.426903,-41.194277
2642.140000,9.540000,-0.211891,0.000000,9.807711,0.000000,0.186732,-0.000000,19.278652,-15.426903,-41.162413
2642.150000,9.550000,-0.232280,0.000000,9.807250,0.000000,0.219457,0.000000,19.364183,-15.426903,-41.122246
2642.160000,9.560000,-0.254936,0.000000,9.806687,0.000000,0.241989,0.000000,19.459134,-15.426903,-41.077400
2642.170000,9.570000,-0.279742,0.000000,9.806011,0.000000,0.273942,-0.000000,19.562978,-15.426903,-41.028046
2642.180000,9.580000,-0.308662,0.000000,9.805143,0.000000,0.325933,-0.000000,19.683898,-15.426903,-40.970170
2642.190000,9.590000,-0.343658,0.000000,9.803979,0.000000,0.387266,-0.000000,19.830009,-15.426903,-40.899651
2642.200000,9.600000,-0.384596,0.000000,9.802458,0.000000,0.439893,0.000000,20.000632,-15.426903,-40.816485
2642.210000,9.610000,-0.429898,0.000000,9.800576,0.000000,0.485166,0.000000,20.189067,-15.426903,-40.723608
2642.220000,9.620000,-0.479693,0.000000,9.798265,0.000000,0.551364,0.000000,20.395741,-15.426903,-40.620493
2642.230000,9.630000,-0.537944,0.000000,9.795239,0.000000,0.667430,-0.000000,20.636904,-15.426903,-40.498505
2642.240000,9.640000,-0.610440,0.000000,9.790989,0.000000,0.828108,-0.000000,20.936138,-15.426903,-40.344625
2642.250000,9.650000,-0.700095,0.000000,9.784987,0.000000,0.992584,0.000000,21.304794,-15.426903,-40.151170
2642.260000,9.660000,-0.804678,0.000000,9.776942,0.000000,1.123998,-0.000000,21.732882,-15.426903,-39.921079
2642.270000,9.670000,-0.919870,0.000000,9.766777,0.000000,1.226838,0.000000,22.201951,-15.426903,-39.662124
2642.280000,9.680000,-1.044312,0.000000,9.754256,0.000000,1.338745,0.000000,22.705800,-15.426903,-39.375847
2642.290000,9.690000,-1.181022,0.000000,9.738649,0.000000,1.486977,0.000000,23.255847,-15.426903,-39.053505
2642.300000,9.700000,-1.333906,0.000000,9.718889,0.000000,1.660946,-0.000000,23.866650,-15.426903,-38.683248
2642.310000,9.710000,-1.503833,0.000000,9.694049,0.000000,1.833182,-0.000000,24.540152,-15.426903,-38.259530
2642.320000,9.720000,-1.689279,0.000000,9.663459,0.000000,2.004895,0.000000,25.268640,-15.426903,-37.782357
2642.330000,9.730000,-1.891257,0.000000,9.625967,0.000000,2.220486,0.000000,26.054243,-15.426903,-37.244961
2642.340000,9.740000,-2.116660,0.000000,9.578928,0.000000,2.526024,-0.000000,26.921214,-15.426903,-36.623202
2642.350000,9.750000,-2.374998,0.000000,9.518166,0.000000,2.912902,-0.000000,27.902030,-15.426903,-35.881575
2642.360000,9.760000,-2.670882,0.000000,9.439412,0.000000,3.315190,0.000000,29.008224,-15.426903,-34.993337
2642.370000,9.770000,-3.000522,0.000000,9.339859,0.000000,3.672840,-0.000000,30.218480,-15.426903,-33.953706
2642.380000,9.780000,-3.356598,0.000000,9.217882,0.000000,3.991438,-0.000000,31.498728,-15.426903,-32.769510
2642.390000,9.790000,-3.736403,-0.000000,9.071883,0.000000,4.328503,0.000000,32.830520,-15.426903,-31.435134
2642.400000,9.800000,-4.145485,-0.000000,8.902731,0.000000,4.720667,-0.000000,34.214900,-15.426903,-29.922421
2642.410000,9.810000,-4.600508,0.000000,8.731555,0.000000,5.130046,0.000000,35.648789,-15.426903,-28.198838
2642.420000,9.820000,-5.153019,0.000000,8.651102,0.000000,5.459597,0.000000,37.100842,-15.426903,-26.259059
2642.430000,9.830000,-5.951676,0.000000,8.906276,0.000000,5.611758,0.000000,38.510767,-15.426903,-24.143974
2642.440000,9.840000,-7.290546,-0.000000,9.921335,0.000000,5.536081,-0.000000,39.809713,-15.426903,-21.936213
2642.450000,9.850000,-9.462633,0.000000,12.112715,0.000000,5.246670,-0.000000,40.943871,-15.426903,-19.738543
2642.460000,9.860000,-12.282820,-0.000000,15.468709,0.000000,4.816445,0.000000,41.889215,-15.426903,-17.643820
2642.470000,9.870000,-14.626964,-0.000000,19.280261,0.000000,4.342412,0.000000,42.653097,-15.426903,-15.707451
2642.480000,9.880000,-14.761530,0.000000,22.516117,0.000000,3.883897,-0.000000,43.262130,-15.426903,-13.942696
2642.490000,9.890000,-11.592829,0.000000,24.669916,0.000000,3.421323,-0.000000,43.743619,-15.426903,-12.349350
2642.500000,9.900000,-5.677038,-0.000000,26.168145,0.000000,2.887716,0.000000,44.114342,-15.426903,-10.951505
2642.510000,9.910000,1.165511,-0.000000,27.834817,0.000000,2.252703,0.000000,44.383598,-15.426903,-9.803413
2642.520000,9.920000,7.205703,0.000000,30.078393,0.000000,1.573218,0.000000,44.562856,-15.426903,-8.953353
2642.530000,9.930000,11.710478,-0.000000,32.672948,0.000000,0.954323,0.000000,44.670049,-15.426903,-8.402224
2642.540000,9.940000,14.805581,-0.000000,35.110296,0.000000,0.460923,-0.000000,44.725620,-15.426903,-8.101210
2642.550000,9.950000,16.895586,0.000000,36.973081,0.000000,0.073831,-0.000000,44.745606,-15.426903,-7.990081
2642.560000,9.960000,18.303639,0.000000,38.051699,0.000000,-0.270490,-0.000000,44.737534,-15.426903,-8.035158
2642.570000,9.970000,19.208989,-0.000000,38.292042,0.000000,-0.609475,0.000000,44.701727,-15.426903,-8.232028
2642.580000,9.980000,19.689011,-0.000000,37.722995,0.000000,-0.930060,0.000000,44.636267,-15.426903,-8.579880
2642.590000,9.990000,19.761151,-0.000000,36.414655,0.000000,-1.205217,-0.000000,44.540874,-15.426903,-9.062074
2642.600000,10.000000,19.418349,0.000000,34.455022,0.000000,-1.438148,-0.000000,44.416502,-15.426903,-9.653238
2642.610000,10.010000,18.657412,0.000000,31.933728,0.000000,-1.662502,0.000000,44.261824,-15.426903,-10.339322
2642.620000,10.020000,17.486764,0.000000,28.936667,0.000000,-1.905661,0.000000,44.071023,-15.426903,-11.124549
2642.630000,10.030000,15.915516,-0.000000,25.551980,0.000000,-2.163095,-0.000000,43.835683,-15.426903,-12.018468
2642.640000,10.040000,13.944778,-0.000000,21.876221,0.000000,-2.413707,-0.000000,43.548625,-15.426903,-13.020291
2642.650000,10.050000,11.573753,0.000000,18.011853,0.000000,-2.656753,0.000000,43.204593,-15.426903,-14.119979
2642.660000,10.060000,8.811230,-0.000000,14.060401,0.000000,-2.924849,-0.000000,42.795558,-15.426903,-15.315055
2642.670000,10.070000,5.676886,0.000000,10.122120,0.000000,-3.252856,-0.000000,42.305048,-15.426903,-16.622080
2642.680000,10.080000,2.192756,0.000000,6.303490,0.000000,-3.634391,-0.000000,41.709165,-15.426903,-18.065331
2642.690000,10.090000,-1.619659,0.000000,2.720724,0.000000,-4.018490,0.000000,40.985861,-15.426903,-19.651204
2642.700000,10.100000,-5.728938,0.000000,-0.509244,0.000000,-4.356141,0.000000,40.123722,-15.426903,-21.356442
2642.710000,10.110000,-10.081561,-0.000000,-3.281641,0.000000,-4.645655,-0.000000,39.119867,-15.426903,-23.144042
2642.720000,10.120000,-14.601019,-0.000000,-5.506451,0.000000,-4.925697,0.000000,37.968378,-15.426903,-24.988256
2642.730000,10.130000,-19.194103,0.000000,-7.102575,0.000000,-5.226646,0.000000,36.652792,-15.426903,-26.880914
2642.740000,10.140000,-23.752394,0.000000,-7.999413,0.000000,-5.536462,-0.000000,35.152407,-15.426903,-28.815256
2642.750000,10.150000,-28.148237,0.000000,-8.152030,0.000000,-5.815825,-0.000000,33.456150,-15.426903,-30.768436
2642.760000,10.160000,-32.235052,-0.000000,-7.555910,0.000000,-6.040746,-0.000000,31.568589,-15.426903,-32.702215
2642.770000,10.170000,-35.856051,0.000000,-6.245845,0.000000,-6.223977,-0.000000,29.501484,-15.426903,-34.578507
2642.780000,10.180000,-38.854007,0.000000,-4.284116,0.000000,-6.394492,0.000000,27.261143,-15.426903,-36.370878
2642.790000,10.190000,-41.075676,-0.000000,-1.757707,0.000000,-6.560610,0.000000,24.847032,-15.426903,-38.060947
2642.800000,10.200000,-42.374993,-0.000000,1.207892,0.000000,-6.696910,-0.000000,22.264447,-15.426903,-39.627075
2642.810000,10.210000,-42.622149,0.000000,4.436196,0.000000,-6.770497,0.000000,19.537791,-15.426903,-41.040047
2642.820000,10.220000,-41.715414,0.000000,7.714218,0.000000,-6.795138,0.000000,16.706741,-15.426903,-42.271686
2642.830000,10.230000,-39.579652,0.000000,10.855303,0.000000,-6.884955,-0.000000,13.792800,-15.426903,-43.310153
2642.840000,10.240000,-36.130386,-0.000000,13.810417,0.000000,-7.221628,0.000000,10.741390,-15.426903,-44.165974
2642.850000,10.250000,-31.212484,-0.000000,16.738908,0.000000,-7.788603,0.000000,7.409851,-15.426903,-44.845343
2642.860000,10.260000,-24.622433,-0.000000,19.852608,0.000000,-7.941882,-0.000000,3.752109,-15.426903,-45.298260
2642.870000,10.270000,-16.441395,0.000000,23.033355,0.000000,-6.450444,-0.000000,0.215740,-15.426903,-45.452878
2642.880000,10.280000,-7.696081,-0.000000,25.732910,0.000000,-2.643904,0.000000,-2.111344,-15.426903,-45.404327
2642.890000,10.290000,-0.462764,0.000000,27.348178,0.000000,2.174889,0.000000,-2.187919,-15.426903,-45.400701
2642.900000,10.300000,3.581826,0.000000,27.207244,0.000000,5.212268,0.000000,-0.134283,-15.426903,-45.453192
2642.910000,10.310000,4.766927,0.000000,24.646480,0.000000,4.811533,0.000000,2.550463,-15.426903,-45.381778
2642.920000,10.320000,4.659729,0.000000,20.153645,0.000000,2.165186,-0.000000,4.235525,-15.426903,-45.255618
2642.930000,10.330000,4.243081,-0.000000,15.474171,0.000000,-0.109866,-0.000000,4.513047,-15.426903,-45.228786
2642.940000,10.340000,3.797098,-0.000000,12.092162,0.000000,-0.571455,0.000000,4.136071,-15.426903,-45.264816
2642.950000,10.350000,3.431770,-0.000000,10.303896,0.000000,0.344689,-0.000000,3.995835,-15.426903,-45.277411
2642.960000,10.360000,3.150526,0.000000,9.613449,0.000000,1.541519,0.000000,4.448024,-15.426903,-45.235227
2642.970000,10.370000,2.893916,0.000000,9.447713,0.000000,2.381203,-0.000000,5.389710,-15.426903,-45.132712
2642.980000,10.380000,2.626914,-0.000000,9.465063,0.000000,2.793272,0.000000,6.596664,-15.426903,-44.972155
2642.990000,10.390000,2.348229,0.000000,9.526358,0.000000,2.914129,-0.000000,7.901676,-15.426903,-44.761302
2643.000000,10.400000,2.068747,0.000000,9.589389,0.000000,2.862234,-0.000000,9.205440,-15.426903,-44.511465
2643.010000,10.410000,1.799024,0.000000,9.643631,0.000000,2.718186,0.000000,10.450026,-15.426903,-44.235819
2643.020000,10.420000,1.544567,0.000000,9.687642,0.000000,2.549142,0.000000,11.610753,-15.426903,-43.945433
2643.030000,10.430000,1.305186,0.000000,9.722787,0.000000,2.394039,-0.000000,12.690980,-15.426903,-43.645729
2643.040000,10.440000,1.079078,0.000000,9.750471,0.000000,2.240049,-0.000000,13.700983,-15.426903,-43.339286
2643.050000,10.450000,0.868395,0.000000,9.771489,0.000000,2.041570,0.000000,14.633125,-15.426903,-43.033502
2643.060000,10.460000,0.680136,0.000000,9.786394,0.000000,1.775152,0.000000,15.458797,-15.426903,-42.743845
2643.070000,10.470000,0.520985,0.000000,9.796156,0.000000,1.473794,0.000000,16.151484,-15.426903,-42.486942
2643.080000,10.480000,0.391409,0.000000,9.802188,0.000000,1.202737,-0.000000,16.711858,-15.426903,-42.269664
2643.090000,10.490000,0.285207,0.000000,9.805853,0.000000,1.003028,-0.000000,17.168751,-15.426903,-42.086158
2643.100000,10.500000,0.194702,0.000000,9.808068,0.000000,0.862880,0.000000,17.556407,-15.426903,-41.925926
2643.110000,10.510000,0.115945,0.000000,9.809315,0.000000,0.742065,0.000000,17.892473,-15.426903,-41.783610
2643.120000,10.520000,0.049121,0.000000,9.809877,0.000000,0.616312,-0.000000,18.176691,-15.426903,-41.660756
2643.130000,10.530000,-0.004973,0.000000,9.809999,0.000000,0.494043,0.000000,18.406139,-15.426903,-41.559893
2643.140000,10.540000,-0.047811,0.000000,9.809883,0.000000,0.395697,-0.000000,18.587443,-15.426903,-41.479123
2643.150000,10.550000,-0.082608,0.000000,9.809652,0.000000,0.326564,-0.000000,18.734462,-15.426903,-41.412928
2643.160000,10.560000,-0.111880,0.000000,9.809362,0.000000,0.272638,-0.000000,18.857957,-15.426903,-41.356839
2643.170000,10.570000,-0.136097,0.000000,9.809056,0.000000,0.217127,0.000000,18.959998,-15.426903,-41.310158
2643.180000,10.580000,-0.154477,0.000000,9.808784,0.000000,0.155804,-0.000000,19.037372,-15.426903,-41.274558
2643.190000,10.590000,-0.166662,0.000000,9.808584,0.000000,0.098512,-0.000000,19.088631,-15.426903,-41.250877
2643.200000,10.600000,-0.173802,0.000000,9.808460,0.000000,0.061179,0.000000,19.118656,-15.426903,-41.236970
2643.210000,10.610000,-0.178663,0.000000,9.808373,0.000000,0.056619,-0.000000,19.139091,-15.426903,-41.227489
2643.220000,10.620000,-0.184909,0.000000,9.808257,0.000000,0.086605,0.000000,19.165339,-15.426903,-41.215294
2643.230000,10.630000,-0.195652,0.000000,9.808049,0.000000,0.137552,0.000000,19.210472,-15.426903,-41.194277
2643.240000,10.640000,-0.211891,0.000000,9.807711,0.000000,0.186732,-0.000000,19.278652,-15.426903,-41.162413
2643.250000,10.650000,-0.232280,0.000000,9.807250,0.000000,0.219457,0.000000,19.364183,-15.426903,-41.122246
2643.260000,10.660000,-0.254936,0.000000,9.806687,0.000000,0.241989,0.000000,19.459134,-15.426903,-41.077400
2643.270000,10.670000,-0.279742,0.000000,9.806011,0.000000,0.273942,-0.000000,19.562978,-15.426903,-41.028046
2643.280000,10.680000,-0.308662,0.000000,9.805143,0.000000,0.325933,-0.000000,19.683898,-15.426903,-40.970170
2643.290000,10.690000,-0.343658,0.000000,9.803979,0.000000,0.387266,-0.000000,19.830009,-15.426903,-40.899651
2643.300000,10.700000,-0.384596,0.000000,9.802458,0.000000,0.439893,0.000000,20.000632,-15.426903,-40.816485
2643.310000,10.710000,-0.429898,0.000000,9.800576,0.000000,0.485166,0.000000,20.189067,-15.426903,-40.723608
2643.320000,10.720000,-0.479693,0.000000,9.798265,0.000000,0.551364,0.000000,20.395741,-15.426903,-40.620493
2643.330000,10.730000,-0.537944,0.000000,9.795239,0.000000,0.667430,-0.000000,20.636904,-15.426903,-40.498505
2643.340000,10.740000,-0.610440,0.000000,9.790989,0.000000,0.828108,-0.000000,20.936138,-15.426903,-40.344625
2643.350000,10.750000,-0.700095,0.000000,9.784987,0.000000,0.992584,0.000000,21.304794,-15.426903,-40.151170
2643.360000,10.760000,-0.804678,0.000000,9.776942,0.000000,1.123998,0.000000,21.732882,-15.426903,-39.921079
2643.370000,10.770000,-0.919870,0.000000,9.766777,0.000000,1.226838,0.000000,22.201951,-15.426903,-39.662124
2643.380000,10.780000,-1.044312,0.000000,9.754256,0.000000,1.338745,-0.000000,22.705800,-15.426903,-39.375847
2643.390000,10.790000,-1.181022,0.000000,9.738649,0.000000,1.486977,-0.000000,23.255847,-15.426903,-39.053505
2643.400000,10.800000,-1.333906,0.000000,9.718889,0.000000,1.660946,-0.000000,23.866650,-15.426903,-38.683248
2643.410000,10.810000,-1.503833,0.000000,9.694049,0.000000,1.833182,0.000000,24.540152,-15.426903,-38.259530
2643.420000,10.820000,-1.689279,0.000000,9.663459,0.000000,2.004895,0.000000,25.268640,-15.426903,-37.782357
2643.430000,10.830000,-1.891257,0.000000,9.625967,0.000000,2.220486,0.000000,26.054243,-15.426903,-37.244961
2643.440000,10.840000,-2.116660,0.000000,9.578928,0.000000,2.526024,-0.000000,26.921214,-15.426903,-36.623202
2643.450000,10.850000,-2.374998,0.000000,9.518166,0.000000,2.912902,0.000000,27.902030,-15.426903,-35.881575
2643.460000,10.860000,-2.670882,0.000000,9.439412,0.000000,3.315190,0.000000,29.008224,-15.426903,-34.993337
2643.470000,10.870000,-3.000522,0.000000,9.339859,0.000000,3.672840,-0.000000,30.218480,-15.426903,-33.953706
2643.480000,10.880000,-3.356598,0.000000,9.217882,0.000000,3.991438,0.000000,31.498728,-15.426903,-32.769510
2643.490000,10.890000,-3.736403,0.000000,9.071883,0.000000,4.328503,-0.000000,32.830520,-15.426903,-31.435134
2643.500000,10.900000,-4.145485,-0.000000,8.902731,0.000000,4.720667,-0.000000,34.214900,-15.426903,-29.922421
2643.510000,10.910000,-4.600508,-0.000000,8.731555,0.000000,5.130046,-0.000000,35.648789,-15.426903,-28.198838
2643.520000,10.920000,-5.153019,0.000000,8.651102,0.000000,5.459597,-0.000000,37.100842,-15.426903,-26.259059
2643.530000,10.930000,-5.951676,-0.000000,8.906276,0.000000,5.611758,0.000000,38.510767,-15.426903,-24.143974
2643.540000,10.940000,-7.290546,-0.000000,9.921335,0.000000,5.536081,-0.000000,39.809713,-15.426903,-21.936213
2643.550000,10.950000,-9.462633,0.000000,12.112715,0.000000,5.246670,-0.000000,40.943871,-15.426903,-19.738543
2643.560000,10.960000,-12.282820,0.000000,15.468709,0.000000,4.816445,0.000000,41.889215,-15.426903,-17.643820
2643.570000,10.970000,-14.626964,0.000000,19.280261,0.000000,4.342412,-0.000000,42.653097,-15.426903,-15.707451
2643.580000,10.980000,-14.761530,0.000000,22.516117,0.000000,3.883897,0.000000,43.262130,-15.426903,-13.942696
2643.590000,10.990000,-11.592829,-0.000000,24.669916,0.000000,3.421323,0.000000,43.743619,-15.426903,-12.349350
