t_native_s,t_opt_s,ax,ay,az,gx,gy,gz,mx,my,mz
2635.200000,0.000000,0.000000,0.000000,9.810000,0.000000,0.000000,0.000000,18.385067,-15.426903,-41.569219
2635.210000,0.010000,0.000000,0.000000,9.810000,0.000000,0.000000,0.000000,18.385067,-15.426903,-41.569219
2635.220000,0.020000,0.000000,0.000000,9.810000,0.000000,0.000000,0.000000,18.385067,-15.426903,-41.569219
2635.230000,0.030000,0.000000,0.000000,9.810000,0.000000,0.000000,0.000000,18.385067,-15.426903,-41.569219
2635.240000,0.040000,0.000000,0.000000,9.810000,0.000000,0.000000,0.000000,18.385067,-15.426903,-41.569219
2635.250000,0.050000,0.000000,0.000000,9.810000,0.000000,0.000000,0.000000,18.385067,-15.426903,-41.569219
2635.260000,0.060000,0.000000,0.000000,9.810000,0.000000,0.000000,0.000000,18.385067,-15.426903,-41.569219
2635.270000,0.070000,0.000000,0.000000,9.810000,0.000000,0.000000,0.000000,18.385067,-15.426903,-41.569219
2635.280000,0.080000,0.000000,0.000000,9.810000,0.000000,0.000000,0.000000,18.385067,-15.426903,-41.569219
2635.290000,0.090000,0.000000,0.000000,9.810000,0.000000,0.000000,0.000000,18.385067,-15.426903,-41.569219
2635.300000,0.100000,0.000000,0.000000,9.810000,0.000000,0.000000,0.000000,18.385067,-15.426903,-41.569219
2635.310000,0.110000,0.000000,0.000000,9.810000,0.000000,0.000000,0.000000,18.385067,-15.426903,-41.569219
2635.320000,0.120000,0.000000,0.000000,9.810000,0.000000,0.000000,0.000000,18.385067,-15.426903,-41.569219
2635.330000,0.130000,0.000000,0.000000,9.810000,0.000000,0.000000,0.000000,18.385067,-15.426903,-41.569219
2635.340000,0.140000,0.000000,0.000000,9.810000,0.000000,0.000000,0.000000,18.385067,-15.426903,-41.569219
2635.350000,0.150000,0.000000,0.000000,9.810000,0.000000,0.000000,0.000000,18.385067,-15.426903,-41.569219
2635.360000,0.160000,0.000000,0.000000,9.810000,0.000000,0.000000,0.000000,18.385067,-15.426903,-41.569219
2635.370000,0.170000,0.000000,0.000000,9.810000,0.000000,0.000000,0.000000,18.385067,-15.426903,-41.569219
2635.380000,0.180000,0.000000,0.000000,9.810000,0.000000,0.000000,0.000000,18.385067,-15.426903,-41.569219
2635.390000,0.190000,0.000000,0.000000,9.810000,0.000000,0.000000,0.000000,18.385067,-15.426903,-41.569219
2635.400000,0.200000,0.000000,0.000000,9.810000,0.000000,0.000000,0.000000,18.385067,-15.426903,-41.569219
2635.410000,0.210000,0.000000,0.000000,9.810000,0.000000,0.000000,0.000000,18.385067,-15.426903,-41.569219
2635.420000,0.220000,0.000000,0.000000,9.810000,0.000000,0.000000,0.000000,18.385067,-15.426903,-41.569219
2635.430000,0.230000,0.000000,0.000000,9.810000,0.000000,0.000000,0.000000,18.385067,-15.426903,-41.569219
2635.440000,0.240000,0.000000,0.000000,9.810000,0.000000,0.000000,0.000000,18.385067,-15.426903,-41.569219
2635.450000,0.250000,0.000000,0.000000,9.810000,0.000000,0.000000,0.000000,18.385067,-15.426903,-41.569219
2635.460000,0.260000,0.000000,0.000000,9.810000,0.000000,0.000000,0.000000,18.385067,-15.426903,-41.569219
2635.470000,0.270000,0.000000,0.000000,9.810000,0.000000,0.000000,0.000000,18.385067,-15.426903,-41.569219
2635.480000,0.280000,0.000000,0.000000,9.810000,0.000000,0.000000,0.000000,18.385067,-15.426903,-41.569219
2635.490000,0.290000,0.000000,0.000000,9.810000,0.000000,0.000000,0.000000,18.385067,-15.426903,-41.569219
2635.500000,0.300000,0.000000,0.000000,9.810000,0.000000,0.000000,0.000000,18.385067,-15.426903,-41.569219
2635.510000,0.310000,0.000000,0.000000,9.810000,0.000000,0.000000,0.000000,18.385067,-15.426903,-41.569219
2635.520000,0.320000,0.000000,0.000000,9.810000,0.000000,0.000000,0.000000,18.385067,-15.426903,-41.569219
2635.530000,0.330000,0.000000,0.000000,9.810000,0.000000,0.000000,0.000000,18.385067,-15.426903,-41.569219
2635.540000,0.340000,0.000000,0.000000,9.810000,0.000000,0.000000,0.000000,18.385067,-15.426903,-41.569219
2635.550000,0.350000,0.000000,0.000000,9.810000,0.000000,0.000000,0.000000,18.385067,-15.426903,-41.569219
2635.560000,0.360000,0.000000,0.000000,9.810000,0.000000,0.000000,0.000000,18.385067,-15.426903,-41.569219
2635.570000,0.370000,0.000000,0.000000,9.810000,0.000000,0.000000,0.000000,18.385067,-15.426903,-41.569219
2635.580000,0.380000,0.000000,0.000000,9.810000,0.000000,0.000000,0.000000,18.385067,-15.426903,-41.569219
2635.590000,0.390000,0.000000,0.000000,9.810000,0.000000,0.000000,0.000000,18.385067,-15.426903,-41.569219
2635.600000,0.400000,0.000000,0.000000,9.810000,0.000000,0.000000,0.000000,18.385067,-15.426903,-41.569219
2635.610000,0.410000,0.000000,0.000000,9.810000,0.000000,0.000000,0.000000,18.385067,-15.426903,-41.569219
2635.620000,0.420000,0.000000,0.000000,9.810000,0.000000,0.000000,0.000000,18.385067,-15.426903,-41.569219
2635.630000,0.430000,0.000000,0.000000,9.810000,0.000000,0.000000,0.000000,18.385067,-15.426903,-41.569219
2635.640000,0.440000,0.000000,0.000000,9.810000,0.000000,0.000000,0.000000,18.385067,-15.426903,-41.569219
2635.650000,0.450000,0.000000,0.000000,9.810000,0.000000,0.000000,0.000000,18.385067,-15.426903,-41.569219
2635.660000,0.460000,0.000000,0.000000,9.810000,0.000000,0.000000,0.000000,18.385067,-15.426903,-41.569219
2635.670000,0.470000,0.000000,0.000000,9.810000,0.000000,0.000000,0.000000,18.385067,-15.426903,-41.569219
2635.680000,0.480000,0.000000,0.000000,9.810000,0.000000,0.000000,0.000000,18.385067,-15.426903,-41.569219
2635.690000,0.490000,0.000000,0.000000,9.810000,0.000000,0.000000,0.000000,18.385067,-15.426903,-41.569219
2635.700000,0.500000,0.000000,0.000000,9.810000,0.000000,0.000000,0.000000,18.385067,-15.426903,-41.569219
2635.710000,0.510000,0.000000,0.000000,9.810000,0.000000,0.000000,0.000000,18.385067,-15.426903,-41.569219
2635.720000,0.520000,0.000000,0.000000,9.810000,0.000000,0.000000,0.000000,18.385067,-15.426903,-41.569219
2635.730000,0.530000,0.000000,0.000000,9.810000,0.000000,0.000000,0.000000,18.385067,-15.426903,-41.569219
2635.740000,0.540000,0.000000,0.000000,9.810000,0.000000,0.000000,0.000000,18.385067,-15.426903,-41.569219
2635.750000,0.550000,0.000000,0.000000,9.810000,0.000000,0.000000,0.000000,18.385067,-15.426903,-41.569219
2635.760000,0.560000,0.000000,-0.000000,9.810000,0.000000,0.000000,0.000000,18.385067,-15.426903,-41.569219
2635.770000,0.570000,0.000000,0.000000,9.810000,0.000000,0.000000,0.000000,18.385067,-15.426903,-41.569219
2635.780000,0.580000,0.000000,0.000000,9.810000,0.000000,0.000000,0.000000,18.385067,-15.426903,-41.569219
2635.790000,0.590000,0.000000,0.000000,9.810000,0.000000,0.000000,0.000000,18.385067,-15.426903,-41.569219
2635.800000,0.600000,0.000000,-0.000000,9.810000,0.000000,0.000000,0.000000,18.385067,-15.426903,-41.569219
2635.810000,0.610000,0.000000,-0.000000,9.810000,0.000000,0.000000,0.000000,18.385067,-15.426903,-41.569219
2635.820000,0.620000,0.000000,0.000000,9.810000,0.000000,0.000000,0.000000,18.385067,-15.426903,-41.569219
2635.830000,0.630000,0.000000,0.000000,9.810000,0.000000,0.000000,0.000000,18.385067,-15.426903,-41.569219
2635.840000,0.640000,0.000000,0.000000,9.810000,0.000000,0.000000,0.000000,18.385067,-15.426903,-41.569219
2635.850000,0.650000,0.000000,0.000000,9.810000,0.000000,-0.000000,0.000000,18.385067,-15.426903,-41.569219
2635.860000,0.660000,0.000000,0.000000,9.810000,0.000000,-0.000000,0.000000,18.385067,-15.426903,-41.569219
2635.870000,0.670000,0.000000,-0.000000,9.810000,0.000000,-0.000000,0.000000,18.385067,-15.426903,-41.569219
2635.880000,0.680000,0.000000,0.000000,9.810000,0.000000,-0.000000,0.000000,18.385067,-15.426903,-41.569219
2635.890000,0.690000,0.000000,0.000000,9.810000,0.000000,-0.000000,0.000000,18.385067,-15.426903,-41.569219
2635.900000,0.700000,0.000000,-0.000000,9.810000,0.000000,-0.000000,0.000000,18.385067,-15.426903,-41.569219
2635.910000,0.710000,0.000000,0.000000,9.810000,0.000000,-0.000000,0.000000,18.385067,-15.426903,-41.569219
2635.920000,0.720000,0.000000,-0.000000,9.810000,0.000000,-0.000000,0.000000,18.385067,-15.426903,-41.569219
2635.930000,0.730000,0.000000,-0.000000,9.810000,0.000000,-0.000000,0.000000,18.385067,-15.426903,-41.569219
2635.940000,0.740000,0.000000,0.000000,9.810000,0.000000,-0.000000,0.000000,18.385067,-15.426903,-41.569219
2635.950000,0.750000,0.000000,-0.000000,9.810000,0.000000,-0.000000,0.000000,18.385067,-15.426903,-41.569219
2635.960000,0.760000,0.000000,0.000000,9.810000,0.000000,-0.000000,0.000000,18.385067,-15.426903,-41.569219
2635.970000,0.770000,0.000000,-0.000000,9.810000,0.000000,-0.000000,0.000000,18.385067,-15.426903,-41.569219
2635.980000,0.780000,0.000000,0.000000,9.810000,0.000000,-0.000000,0.000000,18.385067,-15.426903,-41.569219
2635.990000,0.790000,0.000000,-0.000000,9.810000,0.000000,-0.000000,0.000000,18.385067,-15.426903,-41.569219
2636.000000,0.800000,0.000000,0.000000,9.810000,0.000000,-0.000000,0.000000,18.385067,-15.426903,-41.569219
2636.010000,0.810000,0.000000,0.000000,9.810000,0.000000,-0.000000,0.000000,18.385067,-15.426903,-41.569219
2636.020000,0.820000,0.000000,0.000000,9.810000,0.000000,-0.000000,0.000000,18.385067,-15.426903,-41.569219
2636.030000,0.830000,0.000000,0.000000,9.810000,0.000000,-0.000000,0.000000,18.385067,-15.426903,-41.569219
2636.040000,0.840000,0.000000,-0.000000,9.810000,0.000000,-0.000000,0.000000,18.385067,-15.426903,-41.569219
2636.050000,0.850000,0.000000,-0.000000,9.810000,0.000000,-0.000000,0.000000,18.385067,-15.426903,-41.569219
2636.060000,0.860000,0.000000,0.000000,9.810000,0.000000,-0.000000,0.000000,18.385067,-15.426903,-41.569219
2636.070000,0.870000,0.000000,0.000000,9.810000,0.000000,-0.000000,0.000000,18.385067,-15.426903,-41.569219
2636.080000,0.880000,0.000000,0.000000,9.810000,0.000000,-0.000000,0.000000,18.385067,-15.426903,-41.569219
2636.090000,0.890000,0.000000,0.000000,9.810000,0.000000,-0.000000,0.000000,18.385067,-15.426903,-41.569219
2636.100000,0.900000,0.000000,0.000000,9.810000,0.000000,-0.000000,0.000000,18.385067,-15.426903,-41.569219
2636.110000,0.910000,0.000000,0.000000,9.810000,0.000000,-0.000000,0.000000,18.385067,-15.426903,-41.569219
2636.120000,0.920000,0.000000,-0.000000,9.810000,0.000000,-0.000000,0.000000,18.385067,-15.426903,-41.569219
2636.130000,0.930000,0.000000,0.000000,9.810000,0.000000,-0.000000,0.000000,18.385067,-15.426903,-41.569219
2636.140000,0.940000,0.000000,0.000000,9.810000,0.000000,-0.000000,0.000000,18.385067,-15.426903,-41.569219
2636.150000,0.950000,0.000000,-0.000000,9.810000,0.000000,-0.000000,0.000000,18.385067,-15.426903,-41.569219
2636.160000,0.960000,0.000000,0.000000,9.810000,0.000000,-0.000000,0.000000,18.385067,-15.426903,-41.569219
2636.170000,0.970000,0.000000,-0.000000,9.810000,0.000000,-0.000000,0.000000,18.385067,-15.426903,-41.569219
2636.180000,0.980000,0.000000,-0.000000,9.810000,0.000000,-0.000000,0.000000,18.385067,-15.426903,-41.569219
2636.190000,0.990000,0.000000,-0.000000,9.810000,0.000000,-0.000000,0.000000,18.385067,-15.426903,-41.569219
2636.200000,1.000000,0.000000,0.000000,9.810000,0.000000,-0.000000,0.000000,18.385067,-15.426903,-41.569219
2636.210000,1.010000,0.000000,0.000000,9.810000,0.000000,-0.000000,0.000000,18.385067,-15.426903,-41.569219
2636.220000,1.020000,0.000000,0.000000,9.810000,0.000000,-0.000000,0.000000,18.385067,-15.426903,-41.569219
2636.230000,1.030000,0.000000,0.000000,9.810000,0.000000,-0.000000,0.000000,18.385067,-15.426903,-41.569219
2636.240000,1.040000,0.000000,0.000000,9.810000,0.000000,-0.000000,0.000000,18.385067,-15.426903,-41.569219
2636.250000,1.050000,0.000000,0.000000,9.810000,0.000000,-0.000000,0.000000,18.385067,-15.426903,-41.569219
2636.260000,1.060000,0.000000,0.000000,9.810000,0.000000,-0.000000,0.000000,18.385067,-15.426903,-41.569219
2636.270000,1.070000,0.000000,-0.000000,9.810000,0.000000,-0.000000,0.000000,18.385067,-15.426903,-41.569219
2636.280000,1.080000,0.000000,0.000000,9.810000,0.000000,-0.000000,0.000000,18.385067,-15.426903,-41.569219
2636.290000,1.090000,0.000000,-0.000000,9.810000,0.000000,-0.000000,0.000000,18.385067,-15.426903,-41.569219
2636.300000,1.100000,0.000000,0.000000,9.810000,0.000000,-0.000000,0.000000,18.385067,-15.426903,-41.569219
2636.310000,1.110000,0.000000,-0.000000,9.810000,0.000000,-0.000000,0.000000,18.385067,-15.426903,-41.569219
2636.320000,1.120000,0.000000,0.000000,9.810000,0.000000,-0.000000,0.000000,18.385067,-15.426903,-41.569219
2636.330000,1.130000,0.000000,0.000000,9.810000,0.000000,-0.000000,0.000000,18.385067,-15.426903,-41.569219
2636.340000,1.140000,0.000000,0.000000,9.810000,0.000000,-0.000000,0.000000,18.385067,-15.426903,-41.569219
2636.350000,1.150000,0.000000,0.000000,9.810000,0.000000,-0.000000,0.000000,18.385067,-15.426903,-41.569219
2636.360000,1.160000,0.000000,0.000000,9.810000,0.000000,-0.000000,0.000000,18.385067,-15.426903,-41.569219
2636.370000,1.170000,0.000000,-0.000000,9.810000,0.000000,-0.000000,0.000000,18.385067,-15.426903,-41.569219
2636.380000,1.180000,0.000000,0.000000,9.810000,0.000000,-0.000000,0.000000,18.385067,-15.426903,-41.569219
2636.390000,1.190000,0.000000,-0.000000,9.810000,0.000000,-0.000000,0.000000,18.385067,-15.426903,-41.569219
2636.400000,1.200000,0.000000,0.000000,9.810000,0.000000,-0.000000,0.000000,18.385067,-15.426903,-41.569219
2636.410000,1.210000,0.000000,-0.000000,9.810000,0.000000,-0.000000,0.000000,18.385067,-15.426903,-41.569219
2636.420000,1.220000,0.000000,0.000000,9.810000,0.000000,-0.000000,0.000000,18.385067,-15.426903,-41.569219
2636.430000,1.230000,0.000000,0.000000,9.810000,0.000000,-0.000000,0.000000,18.385067,-15.426903,-41.569219
2636.440000,1.240000,0.000000,0.000000,9.810000,0.000000,-0.000000,0.000000,18.385067,-15.426903,-41.569219
2636.450000,1.250000,0.000000,0.000000,9.810000,0.000000,-0.000000,0.000000,18.385067,-15.426903,-41.569219
2636.460000,1.260000,0.000000,0.000000,9.810000,0.000000,-0.000000,0.000000,18.385067,-15.426903,-41.569219
2636.470000,1.270000,0.000000,-0.000000,9.810000,0.000000,-0.000000,0.000000,18.385067,-15.426903,-41.569219
2636.480000,1.280000,0.000000,0.000000,9.810000,0.000000,-0.000000,0.000000,18.385067,-15.426903,-41.569219
2636.490000,1.290000,0.000000,0.000000,9.810000,0.000000,-0.000000,0.000000,18.385067,-15.426903,-41.569219
2636.500000,1.300000,0.000002,-0.000000,9.810000,0.000000,-0.000000,0.000000,18.385067,-15.426903,-41.569219
2636.510000,1.310000,0.000015,-0.000000,9.810000,0.000000,-0.000000,0.000000,18.385067,-15.426903,-41.569219
2636.520000,1.320000,0.000103,0.000000,9.810000,0.000000,-0.000000,0.000000,18.385067,-15.426903,-41.569219
2636.530000,1.330000,0.000590,0.000000,9.810000,0.000000,-0.000000,0.000000,18.385067,-15.426903,-41.569219
2636.540000,1.340000,0.002910,0.000000,9.810003,0.000000,-0.000000,0.000000,18.385067,-15.426903,-41.569219
2636.550000,1.350000,0.012442,0.000000,9.810032,0.000000,-0.000000,0.000000,18.385067,-15.426903,-41.569219
2636.560000,1.360000,0.046370,0.000000,9.810220,0.000000,-0.000001,-0.000000,18.385067,-15.426903,-41.569219
2636.570000,1.370000,0.150968,0.000000,9.811157,0.000000,-0.000015,-0.000000,18.385066,-15.426903,-41.569220
2636.580000,1.380000,0.428972,-0.000000,9.814899,0.000000,-0.000145,0.000000,18.385054,-15.426903,-41.569225
2636.590000,1.390000,1.058826,0.000000,9.827076,0.000000,-0.001150,0.000000,18.384945,-15.426903,-41.569273
2636.600000,1.400000,2.249039,0.000000,9.860824,0.000000,-0.007315,-0.000000,18.384098,-15.426903,-41.569648
2636.610000,1.410000,4.045088,0.000146,9.937619,0.000000,-0.037241,0.000000,18.378863,-15.426903,-41.571963
2636.620000,1.420000,5.977288,0.001246,10.086278,0.000000,-0.150802,0.000000,18.353132,-15.426903,-41.583329
2636.630000,1.430000,6.796581,0.006895,10.357106,0.000000,-0.481229,0.000000,18.253396,-15.426903,-41.627205
2636.640000,1.440000,4.851340,0.029777,10.878916,0.000000,-1.190893,-0.000000,17.952063,-15.426903,-41.758043
2636.650000,1.450000,-0.492770,0.102048,11.933528,0.000000,-2.215714,-0.000000,17.256807,-15.426903,-42.050128
2636.660000,1.460000,-7.053499,0.278217,13.703402,0.000000,-2.881174,0.000000,16.084383,-15.426903,-42.512390
2636.670000,1.470000,-9.752718,0.604819,15.259663,0.000000,-2.000742,-0.000000,14.806087,-15.426903,-42.974300
2636.680000,1.480000,-3.786938,1.050325,14.338710,0.000000,0.974226,-0.000000,14.370636,-15.426903,-43.121868
2636.690000,1.490000,11.300654,1.458503,10.499708,0.000000,4.647861,0.000000,15.640734,-15.426903,-42.677607
2636.700000,1.500000,30.238776,1.618605,7.224933,0.000000,6.295575,-0.000000,18.313257,-15.426903,-41.600905
2636.710000,1.510000,44.260176,1.430182,6.990093,0.000000,4.489331,0.000000,20.879695,-15.426903,-40.373866
2636.720000,1.520000,47.020088,0.993776,7.849526,0.000000,0.666228,0.000000,21.971437,-15.426903,-39.790283
2636.730000,1.530000,38.821207,0.520226,8.017013,0.000000,-2.440212,0.000000,21.415907,-15.426903,-40.092014
2636.740000,1.540000,25.000073,0.165856,8.195605,0.000000,-3.426782,-0.000000,20.003805,-15.426903,-40.814930
2636.750000,1.550000,11.725540,-0.037714,8.919295,0.000000,-2.836444,-0.000000,18.619491,-15.426903,-41.464747
2636.760000,1.560000,2.720433,-0.136931,9.703727,0.000000,-1.851648,-0.000000,17.657130,-15.426903,-41.883606
2636.770000,1.570000,-1.537573,-0.186215,10.154951,0.000000,-1.145335,-0.000000,17.071408,-15.426903,-42.125737
2636.780000,1.580000,-2.648698,-0.217635,10.315747,0.000000,-0.782888,0.000000,16.693143,-15.426903,-42.277058
2636.790000,1.590000,-2.605245,-0.243793,10.353653,0.000000,-0.605403,0.000000,16.409740,-15.426903,-42.387865
2636.800000,1.600000,-2.712573,-0.268202,10.364022,0.000000,-0.483308,0.000000,16.180035,-15.426903,-42.476077
2636.810000,1.610000,-3.404538,-0.291589,10.364212,0.000000,-0.358657,-0.000000,15.999251,-15.426903,-42.544502
2636.820000,1.620000,-4.573064,-0.314026,10.336942,0.000000,-0.214278,-0.000000,15.874934,-15.426903,-42.591045
2636.830000,1.630000,-5.948485,-0.335438,10.261974,0.000000,-0.052032,-0.000000,15.816777,-15.426903,-42.612677
2636.840000,1.640000,-7.316949,-0.355756,10.130417,0.000000,0.113983,-0.000000,15.830604,-15.426903,-42.607542
2636.850000,1.650000,-8.576583,-0.374913,9.947274,0.000000,0.264957,0.000000,15.913877,-15.426903,-42.576510
2636.860000,1.660000,-9.705114,-0.392848,9.729317,0.000000,0.390624,0.000000,16.056164,-15.426903,-42.523056
2636.870000,1.670000,-10.701187,-0.409501,9.500305,0.000000,0.497839,-0.000000,16.246018,-15.426903,-42.450884
2636.880000,1.680000,-11.542743,-0.424819,9.285629,0.000000,0.603175,-0.000000,16.478755,-15.426903,-42.361082
2636.890000,1.690000,-12.184648,-0.438751,9.109208,0.000000,0.714592,0.000000,16.756933,-15.426903,-42.251815
2636.900000,1.700000,-12.587357,-0.451252,8.993446,0.000000,0.821644,-0.000000,17.082475,-15.426903,-42.121250
2636.910000,1.710000,-12.743985,-0.462280,8.959430,0.000000,0.906018,-0.000000,17.448966,-15.426903,-41.970755
2636.920000,1.720000,-12.677816,-0.471802,9.023950,0.000000,0.961179,0.000000,17.842892,-15.426903,-41.804807
2636.930000,1.730000,-12.413859,-0.479784,9.194454,0.000000,0.998871,0.000000,18.252533,-15.426903,-41.627583
2636.940000,1.740000,-11.954690,-0.486201,9.466567,0.000000,1.035581,-0.000000,18.674442,-15.426903,-41.440028
2636.950000,1.750000,-11.285447,-0.491032,9.826216,0.000000,1.075482,-0.000000,19.110747,-15.426903,-41.240636
2636.960000,1.760000,-10.402547,-0.494262,10.253591,0.000000,1.108436,0.000000,19.561430,-15.426903,-41.028784
2636.970000,1.770000,-9.337712,-0.495879,10.725201,0.000000,1.122380,-0.000000,20.020247,-15.426903,-40.806867
2636.980000,1.780000,-8.154407,-0.495879,11.213687,0.000000,1.115287,-0.000000,20.477442,-15.426903,-40.579367
2636.990000,1.790000,-6.919076,-0.494262,11.688083,0.000000,1.096939,0.000000,20.925437,-15.426903,-40.350177
2637.000000,1.800000,-5.670383,-0.491032,12.116348,0.000000,1.082972,-0.000000,21.362722,-15.426903,-40.120378
2637.010000,1.810000,-4.410724,-0.486201,12.469553,0.000000,1.087029,0.000000,21.794439,-15.426903,-39.887505
2637.020000,1.820000,-3.127249,-0.479784,12.726110,0.000000,1.113033,0.000000,22.229862,-15.426903,-39.646486
2637.030000,1.830000,-1.826844,-0.471802,12.874663,0.000000,1.150374,-0.000000,22.676907,-15.426903,-39.392494
2637.040000,1.840000,-0.557033,-0.462280,12.914341,0.000000,1.179026,-0.000000,23.136085,-15.426903,-39.124574
2637.050000,1.850000,0.606313,-0.451252,12.852248,0.000000,1.185040,-0.000000,23.599433,-15.426903,-38.846846
2637.060000,1.860000,1.597365,-0.438751,12.700461,0.000000,1.172415,0.000000,24.056805,-15.426903,-38.565280
2637.070000,1.870000,2.394753,-0.424819,12.474712,0.000000,1.157380,0.000000,24.503775,-15.426903,-38.282838
2637.080000,1.880000,3.023943,-0.409501,12.193821,0.000000,1.150304,0.000000,24.942994,-15.426903,-37.998128
2637.090000,1.890000,3.527601,-0.392848,11.877752,0.000000,1.144920,-0.000000,25.377970,-15.426903,-37.709009
2637.100000,1.900000,3.932728,-0.374913,11.544443,0.000000,1.126510,0.000000,25.806494,-15.426903,-37.417049
2637.110000,1.910000,4.243586,-0.355756,11.207534,0.000000,1.089609,0.000000,26.221066,-15.426903,-37.127703
2637.120000,1.920000,4.460702,-0.335438,10.876666,0.000000,1.045203,-0.000000,26.615717,-15.426903,-36.845818
2637.130000,1.930000,4.599252,-0.314026,10.559544,0.000000,1.009015,0.000000,26.991414,-15.426903,-36.571495
2637.140000,1.940000,4.683893,-0.291589,10.263334,0.000000,0.984003,-0.000000,27.353819,-15.426903,-36.301229
2637.150000,1.950000,4.726165,-0.268202,9.994201,0.000000,0.957539,-0.000000,27.705882,-15.426903,-36.033245
2637.160000,1.960000,4.710945,-0.243940,9.756198,0.000000,0.916981,-0.000000,28.043968,-15.426903,-35.770750
2637.170000,1.970000,4.607217,-0.218882,9.551302,0.000000,0.865280,0.000000,28.362031,-15.426903,-35.519092
2637.180000,1.980000,4.389776,-0.193110,9.380827,0.000000,0.818299,0.000000,28.658780,-15.426903,-35.280093
2637.190000,1.990000,4.047127,-0.166708,9.246586,0.000000,0.787779,0.000000,28.939518,-15.426903,-35.050178
2637.200000,2.000000,3.570758,-0.139762,9.150540,0.000000,0.770833,0.000000,29.211065,-15.426903,-34.824193
2637.210000,2.010000,2.947267,-0.112361,9.093769,0.000000,0.759075,-0.000000,29.476419,-15.426903,-34.599875
2637.220000,2.020000,2.172637,-0.084593,9.076271,0.000000,0.757436,-0.000000,29.736366,-15.426903,-34.376725
2637.230000,2.030000,1.276573,-0.056549,9.097723,0.000000,0.789020,-0.000000,29.997166,-15.426903,-34.149388
2637.240000,2.040000,0.322716,-0.028321,9.157924,0.000000,0.875283,0.000000,30.275125,-15.426903,-33.903207
2637.250000,2.050000,-0.628709,0.000000,9.256612,0.000000,1.010690,0.000000,30.590354,-15.426903,-33.619056
2637.260000,2.060000,-1.562748,0.028321,9.393432,0.000000,1.164180,-0.000000,30.954218,-15.426903,-33.284337
2637.270000,2.070000,-2.505860,0.056549,9.567203,0.000000,1.312542,-0.000000,31.364782,-15.426903,-32.897737
2637.280000,2.080000,-3.467580,0.084593,9.773250,0.000000,1.469391,0.000000,31.817219,-15.426903,-32.460364
2637.290000,2.090000,-4.381176,0.112361,10.000452,0.000000,1.672513,0.000000,32.317927,-15.426903,-31.961888
2637.300000,2.100000,-5.109878,0.139762,10.231677,0.000000,1.939001,-0.000000,32.885075,-15.426903,-31.378058
2637.310000,2.110000,-5.527290,0.166708,10.449691,0.000000,2.236619,-0.000000,33.532877,-15.426903,-30.684799
2637.320000,2.120000,-5.607522,0.193110,10.643798,0.000000,2.503553,-0.000000,34.255439,-15.426903,-29.876003
2637.330000,2.130000,-5.447805,0.218882,10.808645,0.000000,2.695477,0.000000,35.026781,-15.426903,-28.967832
2637.340000,2.140000,-5.205736,0.243940,10.936777,0.000000,2.811750,0.000000,35.815679,-15.426903,-27.986565
2637.350000,2.150000,-5.005025,0.268202,11.015869,0.000000,2.880937,0.000000,36.599759,-15.426903,-26.953076
2637.360000,2.160000,-4.881866,0.291589,11.034123,0.000000,2.929115,0.000000,37.368108,-15.426903,-25.877310
2637.370000,2.170000,-4.800542,0.314026,10.986810,0.000000,2.962424,-0.000000,38.115252,-15.426903,-24.763648
2637.380000,2.180000,-4.709417,0.335438,10.877700,0.000000,2.971080,0.000000,38.835038,-15.426903,-23.618859
2637.390000,2.190000,-4.585318,0.355756,10.715385,0.000000,2.942020,0.000000,39.518807,-15.426903,-22.456059
2637.400000,2.200000,-4.434702,0.374913,10.508259,0.000000,2.869255,-0.000000,40.156953,-15.426903,-21.293892
2637.410000,2.210000,-4.260181,0.392848,10.262087,0.000000,2.759234,-0.000000,40.741851,-15.426903,-20.152227
2637.420000,2.220000,-4.030352,0.409501,9.981749,0.000000,2.628090,0.000000,41.270456,-15.426903,-19.046263
2637.430000,2.230000,-3.689294,0.424819,9.675547,0.000000,2.487067,-0.000000,41.744443,-15.426903,-17.983664
2637.440000,2.240000,-3.207404,0.438751,9.358255,0.000000,2.324459,0.000000,42.166494,-15.426903,-16.970488
2637.450000,2.250000,-2.631069,0.451252,9.049364,0.000000,2.106032,0.000000,42.535153,-15.426903,-16.024088
2637.460000,2.260000,-2.076462,0.462280,8.766896,0.000000,1.804935,-0.000000,42.843739,-15.426903,-15.179747
2637.470000,2.270000,-1.656495,0.471802,8.523084,0.000000,1.436541,0.000000,43.085794,-15.426903,-14.478432
2637.480000,2.280000,-1.397807,0.479784,8.327162,0.000000,1.055006,0.000000,43.262138,-15.426903,-13.942671
2637.490000,2.290000,-1.225753,0.486201,8.190350,0.000000,0.704624,-0.000000,43.381683,-15.426903,-13.566143
2637.500000,2.300000,-1.035598,0.491032,8.125582,0.000000,0.376546,-0.000000,43.454325,-15.426903,-13.331629
2637.510000,2.310000,-0.781156,0.494262,8.143451,0.000000,0.022597,-0.000000,43.482618,-15.426903,-13.239056
2637.520000,2.320000,-0.492353,0.495879,8.250101,0.000000,-0.387177,-0.000000,43.460345,-15.426903,-13.311989
2637.530000,2.330000,-0.210016,0.495879,8.449478,0.000000,-0.828624,0.000000,43.378798,-15.426903,-13.575367
2637.540000,2.340000,0.081175,0.494262,8.746339,0.000000,-1.251110,-0.000000,43.233772,-15.426903,-14.030384
2637.550000,2.350000,0.438863,0.491032,9.144148,0.000000,-1.638300,0.000000,43.025558,-15.426903,-14.656467
2637.560000,2.360000,0.881127,0.486201,9.639749,0.000000,-2.031524,0.000000,42.750905,-15.426903,-15.439263
2637.570000,2.370000,1.334000,0.479784,10.222691,0.000000,-2.484675,-0.000000,42.394666,-15.426903,-16.392161
2637.580000,2.380000,1.678491,0.471802,10.881694,0.000000,-2.998691,-0.000000,41.931122,-15.426903,-17.543992
2637.590000,2.390000,1.854787,0.462280,11.611590,0.000000,-3.512621,0.000000,41.335760,-15.426903,-18.904116
2637.600000,2.400000,1.912658,0.451252,12.409440,0.000000,-3.965490,0.000000,40.595897,-15.426903,-20.444653
2637.610000,2.410000,1.951935,0.438751,13.260431,0.000000,-4.358067,-0.000000,39.707652,-15.426903,-22.120421
2637.620000,2.420000,2.014870,0.424819,14.131622,0.000000,-4.743762,-0.000000,38.661398,-15.426903,-23.902029
2637.630000,2.430000,2.042187,0.409501,14.983637,0.000000,-5.162639,0.000000,37.432619,-15.426903,-25.783903
2637.640000,2.440000,1.933804,0.392848,15.788027,0.000000,-5.594923,0.000000,35.990644,-15.426903,-27.761200
2637.650000,2.450000,1.646115,0.374913,16.531823,0.000000,-5.981640,0.000000,34.317600,-15.426903,-29.804580
2637.660000,2.460000,1.228730,0.355756,17.205313,0.000000,-6.283144,0.000000,32.417886,-15.426903,-31.860498
2637.670000,2.470000,0.778146,0.335438,17.790945,0.000000,-6.510262,0.000000,30.308710,-15.426903,-33.873187
2637.680000,2.480000,0.376829,0.314026,18.272984,0.000000,-6.700683,-0.000000,28.003483,-15.426903,-35.802452
2637.690000,2.490000,0.090798,0.291589,18.658431,0.000000,-6.873088,-0.000000,25.507273,-15.426903,-37.621665
2637.700000,2.500000,-0.001567,0.268202,18.970826,0.000000,-7.007818,-0.000000,22.829078,-15.426903,-39.304502
2637.710000,2.510000,0.109973,0.243940,19.186452,0.000000,-7.071797,0.000000,19.996790,-15.426903,-40.818367
2637.720000,2.520000,0.063737,0.218882,19.142755,0.000000,-7.074595,0.000000,17.055589,-15.426903,-42.132144
2637.730000,2.530000,-1.241465,0.193110,18.534864,0.000000,-7.126444,0.000000,14.035626,-15.426903,-43.232070
2637.740000,2.540000,-5.540864,0.166708,17.139020,0.000000,-7.411114,0.000000,10.892571,-15.426903,-44.128931
2637.750000,2.550000,-14.103529,0.139762,15.260863,0.000000,-7.923826,0.000000,7.491095,-15.426903,-44.831843
2637.760000,2.560000,-25.926134,0.112361,13.943060,0.000000,-8.040867,-0.000000,3.784349,-15.426903,-45.295578
2637.770000,2.570000,-36.748993,0.084593,13.915075,0.000000,-6.554902,-0.000000,0.207823,-15.426903,-45.452915
2637.780000,2.580000,-40.789280,0.056549,13.858916,0.000000,-2.814852,-0.000000,-2.174080,-15.426903,-45.401366
2637.790000,2.590000,-34.664810,0.028321,11.792302,0.000000,1.873023,-0.000000,-2.351109,-15.426903,-45.392543
2637.800000,2.600000,-20.196854,0.000000,8.821087,0.000000,4.736899,0.000000,-0.471661,-15.426903,-45.450943
2637.810000,2.610000,-4.156095,-0.028321,7.578847,0.000000,4.162238,0.000000,1.955091,-15.426903,-45.411323
2637.820000,2.620000,5.889482,-0.056549,7.762211,0.000000,1.384426,0.000000,3.310509,-15.426903,-45.332673
2637.830000,2.630000,6.713317,-0.084593,7.754167,0.000000,-0.957119,0.000000,3.211754,-15.426903,-45.339776
2637.840000,2.640000,0.630789,-0.112361,7.580446,0.000000,-1.423829,-0.000000,2.442143,-15.426903,-45.387736
2637.850000,2.650000,-7.173863,-0.139762,7.697789,0.000000,-0.470117,-0.000000,1.919456,-15.426903,-45.412844
2637.860000,2.660000,-12.443114,-0.166708,7.926637,0.000000,0.786335,-0.000000,2.015278,-15.426903,-45.408692
2637.870000,2.670000,-13.836672,-0.193110,8.086442,0.000000,1.695215,-0.000000,2.633403,-15.426903,-45.377041
2637.880000,2.680000,-12.392288,-0.218882,8.257422,0.000000,2.189073,-0.000000,3.553458,-15.426903,-45.314276
2637.890000,2.690000,-9.876849,-0.243940,8.523672,0.000000,2.420407,-0.000000,4.617078,-15.426903,-45.218285
2637.900000,2.700000,-7.555585,-0.268202,8.864459,0.000000,2.520460,0.000000,5.742232,-15.426903,-45.089217
2637.910000,2.710000,-5.881114,-0.291589,9.219185,0.000000,2.560958,0.000000,6.889906,-15.426903,-44.928163
2637.920000,2.720000,-4.764048,-0.314026,9.549941,0.000000,2.579089,0.000000,8.043374,-15.426903,-44.736057
2637.930000,2.730000,-3.947601,-0.335438,9.852217,0.000000,2.585802,-0.000000,9.197444,-15.426903,-44.513118
2637.940000,2.740000,-3.247387,-0.355756,10.140171,0.000000,2.564269,-0.000000,10.345416,-15.426903,-44.260400
2637.950000,2.750000,-2.625028,-0.374913,10.430671,0.000000,2.486050,0.000000,11.467470,-15.426903,-43.983040
2637.960000,2.760000,-2.141211,-0.392848,10.733147,0.000000,2.343356,0.000000,12.532620,-15.426903,-43.691465
2637.970000,2.770000,-1.856250,-0.409501,11.047400,0.000000,2.166390,-0.000000,13.515668,-15.426903,-43.397435
2637.980000,2.780000,-1.754895,-0.424819,11.368547,0.000000,2.003316,-0.000000,14.413468,-15.426903,-43.107570
2637.990000,2.790000,-1.746532,-0.438751,11.692728,0.000000,1.880456,0.000000,15.243247,-15.426903,-42.821188
2638.000000,2.800000,-1.729098,-0.451252,12.018338,0.000000,1.784380,0.000000,16.024226,-15.426903,-42.535101
2638.010000,2.810000,-1.653553,-0.462280,12.343434,0.000000,1.683809,0.000000,16.761482,-15.426903,-42.250010
2638.020000,2.820000,-1.533497,-0.471802,12.662526,0.000000,1.565485,-0.000000,17.447356,-15.426903,-41.971424
2638.030000,2.830000,-1.402073,-0.479784,12.965906,0.000000,1.445391,-0.000000,18.075940,-15.426903,-41.704569
2638.040000,2.840000,-1.266115,-0.486201,13.242358,0.000000,1.347554,0.000000,18.653242,-15.426903,-41.449575
2638.050000,2.850000,-1.101100,-0.491032,13.482534,0.000000,1.278517,0.000000,19.193256,-15.426903,-41.202301
2638.060000,2.860000,-0.884245,-0.494262,13.680238,0.000000,1.224605,0.000000,19.706936,-15.426903,-40.959093
2638.070000,2.870000,-0.627151,-0.495879,13.831485,0.000000,1.169098,0.000000,20.196555,-15.426903,-40.719895
2638.080000,2.880000,-0.374680,-0.495879,13.932934,0.000000,1.107779,-0.000000,20.659188,-15.426903,-40.487142
2638.090000,2.890000,-0.170745,-0.494262,13.981369,0.000000,1.050490,-0.000000,21.093716,-15.426903,-40.262462
2638.100000,2.900000,-0.019908,-0.491032,13.974415,0.000000,1.013154,0.000000,21.505209,-15.426903,-40.044184
2638.110000,2.910000,0.124442,-0.486201,13.911487,0.000000,1.008549,0.000000,21.905185,-15.426903,-39.826794
2638.120000,2.920000,0.335370,-0.479784,13.794284,0.000000,1.038283,-0.000000,22.308523,-15.426903,-39.602279
2638.130000,2.930000,0.667623,-0.471802,13.626872,0.000000,1.088146,0.000000,22.727447,-15.426903,-39.363356
2638.140000,2.940000,1.124024,-0.462280,13.415129,0.000000,1.133615,0.000000,23.165050,-15.426903,-39.107430
2638.150000,2.950000,1.656614,-0.451252,13.165330,0.000000,1.156223,-0.000000,23.614006,-15.426903,-38.837989
2638.160000,2.960000,2.199991,-0.438751,12.882950,0.000000,1.156707,-0.000000,24.063134,-15.426903,-38.561331
2638.170000,2.970000,2.709012,-0.424819,12.573231,0.000000,1.150122,-0.000000,24.506110,-15.426903,-38.281343
2638.180000,2.980000,3.171111,-0.409501,12.242793,0.000000,1.147496,0.000000,24.943715,-15.426903,-37.997655
2638.190000,2.990000,3.588542,-0.392848,11.900036,0.000000,1.144022,-0.000000,25.378153,-15.426903,-37.708885
2638.200000,3.000000,3.954527,-0.374913,11.553663,0.000000,1.126275,0.000000,25.806532,-15.426903,-37.417023
2638.210000,3.010000,4.250032,-0.355756,11.210978,0.000000,1.089559,0.000000,26.221072,-15.426903,-37.127699
2638.220000,3.020000,4.462105,-0.335438,10.877818,0.000000,1.045195,-0.000000,26.615717,-15.426903,-36.845818
2638.230000,3.030000,4.599365,-0.314026,10.559886,0.000000,1.009014,0.000000,26.991414,-15.426903,-36.571495
2638.240000,3.040000,4.683811,-0.291589,10.263423,0.000000,0.984003,-0.000000,27.353819,-15.426903,-36.301229
2638.250000,3.050000,4.726109,-0.268202,9.994221,0.000000,0.957539,-0.000000,27.705882,-15.426903,-36.033245
2638.260000,3.060000,4.710922,-0.243940,9.756202,0.000000,0.916981,-0.000000,28.043968,-15.426903,-35.770750
2638.270000,3.070000,4.607210,-0.218882,9.551303,0.000000,0.865280,0.000000,28.362031,-15.426903,-35.519092
2638.280000,3.080000,4.389775,-0.193110,9.380827,0.000000,0.818299,0.000000,28.658780,-15.426903,-35.280093
2638.290000,3.090000,4.047127,-0.166708,9.246586,0.000000,0.787779,0.000000,28.939518,-15.426903,-35.050178
2638.300000,3.100000,3.570758,-0.139762,9.150540,0.000000,0.770833,0.000000,29.211065,-15.426903,-34.824193
2638.310000,3.110000,2.947267,-0.112361,9.093769,0.000000,0.759075,0.000000,29.476419,-15.426903,-34.599875
2638.320000,3.120000,2.172637,-0.084593,9.076271,0.000000,0.757436,-0.000000,29.736366,-15.426903,-34.376725
2638.330000,3.130000,1.276573,-0.056549,9.097723,0.000000,0.789020,-0.000000,29.997166,-15.426903,-34.149388
2638.340000,3.140000,0.322716,-0.028321,9.157924,0.000000,0.875283,0.000000,30.275125,-15.426903,-33.903207
2638.350000,3.150000,-0.628709,-0.000000,9.256612,0.000000,1.010690,0.000000,30.590354,-15.426903,-33.619056
2638.360000,3.160000,-1.562748,0.028321,9.393432,0.000000,1.164180,-0.000000,30.954218,-15.426903,-33.284337
2638.370000,3.170000,-2.505860,0.056549,9.567203,0.000000,1.312542,-0.000000,31.364782,-15.426903,-32.897737
2638.380000,3.180000,-3.467580,0.084593,9.773250,0.000000,1.469391,0.000000,31.817219,-15.426903,-32.460364
2638.390000,3.190000,-4.381176,0.112361,10.000452,0.000000,1.672513,0.000000,32.317927,-15.426903,-31.961888
2638.400000,3.200000,-5.109878,0.139762,10.231677,0.000000,1.939001,-0.000000,32.885075,-15.426903,-31.378058
2638.410000,3.210000,-5.527290,0.166708,10.449691,0.000000,2.236619,-0.000000,33.532877,-15.426903,-30.684799
2638.420000,3.220000,-5.607522,0.193110,10.643798,0.000000,2.503553,-0.000000,34.255439,-15.426903,-29.876003
2638.430000,3.230000,-5.447805,0.218882,10.808645,0.000000,2.695477,0.000000,35.026781,-15.426903,-28.967832
2638.440000,3.240000,-5.205736,0.243940,10.936777,0.000000,2.811750,0.000000,35.815679,-15.426903,-27.986565
2638.450000,3.250000,-5.005025,0.268202,11.015869,0.000000,2.880937,0.000000,36.599759,-15.426903,-26.953076
2638.460000,3.260000,-4.881866,0.291589,11.034123,0.000000,2.929115,0.000000,37.368108,-15.426903,-25.877310
2638.470000,3.270000,-4.800542,0.314026,10.986810,0.000000,2.962424,-0.000000,38.115252,-15.426903,-24.763648
2638.480000,3.280000,-4.709417,0.335438,10.877700,0.000000,2.971080,0.000000,38.835038,-15.426903,-23.618859
2638.490000,3.290000,-4.585318,0.355756,10.715385,0.000000,2.942020,0.000000,39.518807,-15.426903,-22.456059
2638.500000,3.300000,-4.434702,0.374913,10.508259,0.000000,2.869255,-0.000000,40.156953,-15.426903,-21.293892
2638.510000,3.310000,-4.260181,0.392848,10.262087,0.000000,2.759234,0.000000,40.741851,-15.426903,-20.152227
2638.520000,3.320000,-4.030352,0.409501,9.981749,0.000000,2.628090,-0.000000,41.270456,-15.426903,-19.046263
2638.530000,3.330000,-3.689294,0.424819,9.675547,0.000000,2.487067,-0.000000,41.744443,-15.426903,-17.983664
2638.540000,3.340000,-3.207404,0.438751,9.358255,0.000000,2.324459,0.000000,42.166494,-15.426903,-16.970488
2638.550000,3.350000,-2.631069,0.451252,9.049364,0.000000,2.106032,0.000000,42.535153,-15.426903,-16.024088
2638.560000,3.360000,-2.076462,0.462280,8.766896,0.000000,1.804935,0.000000,42.843739,-15.426903,-15.179747
2638.570000,3.370000,-1.656495,0.471802,8.523084,0.000000,1.436541,-0.000000,43.085794,-15.426903,-14.478432
2638.580000,3.380000,-1.397807,0.479784,8.327162,0.000000,1.055006,-0.000000,43.262138,-15.426903,-13.942671
2638.590000,3.390000,-1.225753,0.486201,8.190350,0.000000,0.704624,0.000000,43.381683,-15.426903,-13.566143
2638.600000,3.400000,-1.035598,0.491032,8.125582,0.000000,0.376546,-0.000000,43.454325,-15.426903,-13.331629
2638.610000,3.410000,-0.781156,0.494262,8.143451,0.000000,0.022597,-0.000000,43.482618,-15.426903,-13.239056
2638.620000,3.420000,-0.492353,0.495879,8.250101,0.000000,-0.387177,-0.000000,43.460345,-15.426903,-13.311989
2638.630000,3.430000,-0.210016,0.495879,8.449478,0.000000,-0.828624,0.000000,43.378798,-15.426903,-13.575367
2638.640000,3.440000,0.081175,0.494262,8.746339,0.000000,-1.251110,0.000000,43.233772,-15.426903,-14.030384
2638.650000,3.450000,0.438863,0.491032,9.144148,0.000000,-1.638300,0.000000,43.025558,-15.426903,-14.656467
2638.660000,3.460000,0.881127,0.486201,9.639749,0.000000,-2.031524,-0.000000,42.750905,-15.426903,-15.439263
2638.670000,3.470000,1.334000,0.479784,10.222691,0.000000,-2.484675,-0.000000,42.394666,-15.426903,-16.392161
2638.680000,3.480000,1.678491,0.471802,10.881694,0.000000,-2.998691,0.000000,41.931122,-15.426903,-17.543992
2638.690000,3.490000,1.854787,0.462280,11.611590,0.000000,-3.512621,0.000000,41.335760,-15.426903,-18.904116
2638.700000,3.500000,1.912658,0.451252,12.409440,0.000000,-3.965490,0.000000,40.595897,-15.426903,-20.444653
2638.710000,3.510000,1.951935,0.438751,13.260431,0.000000,-4.358067,-0.000000,39.707652,-15.426903,-22.120421
2638.720000,3.520000,2.014870,0.424819,14.131622,0.000000,-4.743762,-0.000000,38.661398,-15.426903,-23.902029
2638.730000,3.530000,2.042187,0.409501,14.983637,0.000000,-5.162639,0.000000,37.432619,-15.426903,-25.783903
2638.740000,3.540000,1.933804,0.392848,15.788027,0.000000,-5.594923,0.000000,35.990644,-15.426903,-27.761200
2638.750000,3.550000,1.646115,0.374913,16.531823,0.000000,-5.981640,0.000000,34.317600,-15.426903,-29.804580
2638.760000,3.560000,1.228730,0.355756,17.205313,0.000000,-6.283144,-0.000000,32.417886,-15.426903,-31.860498
2638.770000,3.570000,0.778146,0.335438,17.790945,0.000000,-6.510262,-0.000000,30.308710,-15.426903,-33.873187
2638.780000,3.580000,0.376829,0.314026,18.272984,0.000000,-6.700683,-0.000000,28.003483,-15.426903,-35.802452
2638.790000,3.590000,0.090798,0.291589,18.658431,0.000000,-6.873088,0.000000,25.507273,-15.426903,-37.621665
2638.800000,3.600000,-0.001567,0.268202,18.970826,0.000000,-7.007818,-0.000000,22.829078,-15.426903,-39.304502
2638.810000,3.610000,0.109973,0.243940,19.186452,0.000000,-7.071797,0.000000,19.996790,-15.426903,-40.818367
2638.820000,3.620000,0.063737,0.218882,19.142755,0.000000,-7.074595,0.000000,17.055589,-15.426903,-42.132144
2638.830000,3.630000,-1.241465,0.193110,18.534864,0.000000,-7.126444,-0.000000,14.035626,-15.426903,-43.232070
2638.840000,3.640000,-5.540864,0.166708,17.139020,0.000000,-7.411114,-0.000000,10.892571,-15.426903,-44.128931
2638.850000,3.650000,-14.103529,0.139762,15.260863,0.000000,-7.923826,0.000000,7.491095,-15.426903,-44.831843
2638.860000,3.660000,-25.926134,0.112361,13.943060,0.000000,-8.040867,0.000000,3.784349,-15.426903,-45.295578
2638.870000,3.670000,-36.748993,0.084593,13.915075,0.000000,-6.554902,-0.000000,0.207823,-15.426903,-45.452915
2638.880000,3.680000,-40.789280,0.056549,13.858916,0.000000,-2.814852,0.000000,-2.174080,-15.426903,-45.401366
2638.890000,3.690000,-34.664810,0.028321,11.792302,0.000000,1.873023,0.000000,-2.351109,-15.426903,-45.392543
2638.900000,3.700000,-20.196854,-0.000000,8.821087,0.000000,4.736899,-0.000000,-0.471661,-15.426903,-45.450943
2638.910000,3.710000,-4.156095,-0.028321,7.578847,0.000000,4.162238,-0.000000,1.955091,-15.426903,-45.411323
2638.920000,3.720000,5.889482,-0.056549,7.762211,0.000000,1.384426,0.000000,3.310509,-15.426903,-45.332673
2638.930000,3.730000,6.713317,-0.084593,7.754167,0.000000,-0.957119,0.000000,3.211754,-15.426903,-45.339776
2638.940000,3.740000,0.630789,-0.112361,7.580446,0.000000,-1.423829,-0.000000,2.442143,-15.426903,-45.387736
2638.950000,3.750000,-7.173863,-0.139762,7.697789,0.000000,-0.470117,-0.000000,1.919456,-15.426903,-45.412844
2638.960000,3.760000,-12.443114,-0.166708,7.926637,0.000000,0.786335,0.000000,2.015278,-15.426903,-45.408692
2638.970000,3.770000,-13.836672,-0.193110,8.086442,0.000000,1.695215,-0.000000,2.633403,-15.426903,-45.377041
2638.980000,3.780000,-12.392288,-0.218882,8.257422,0.000000,2.189073,-0.000000,3.553458,-15.426903,-45.314276
2638.990000,3.790000,-9.876849,-0.243940,8.523672,0.000000,2.420407,-0.000000,4.617078,-15.426903,-45.218285
2639.000000,3.800000,-7.555585,-0.268202,8.864459,0.000000,2.520460,0.000000,5.742232,-15.426903,-45.089217
2639.010000,3.810000,-5.881114,-0.291589,9.219185,0.000000,2.560958,0.000000,6.889906,-15.426903,-44.928163
2639.020000,3.820000,-4.764048,-0.314026,9.549941,0.000000,2.579089,0.000000,8.043374,-15.426903,-44.736057
2639.030000,3.830000,-3.947601,-0.335438,9.852217,0.000000,2.585802,-0.000000,9.197444,-15.426903,-44.513118
2639.040000,3.840000,-3.247387,-0.355756,10.140171,0.000000,2.564269,-0.000000,10.345416,-15.426903,-44.260400
2639.050000,3.850000,-2.625028,-0.374913,10.430671,0.000000,2.486050,0.000000,11.467470,-15.426903,-43.983040
2639.060000,3.860000,-2.141211,-0.392848,10.733147,0.000000,2.343356,0.000000,12.532620,-15.426903,-43.691465
2639.070000,3.870000,-1.856250,-0.409501,11.047400,0.000000,2.166390,-0.000000,13.515668,-15.426903,-43.397435
2639.080000,3.880000,-1.754895,-0.424819,11.368547,0.000000,2.003316,0.000000,14.413468,-15.426903,-43.107570
2639.090000,3.890000,-1.746532,-0.438751,11.692728,0.000000,1.880456,0.000000,15.243247,-15.426903,-42.821188
2639.100000,3.900000,-1.729098,-0.451252,12.018338,0.000000,1.784380,0.000000,16.024226,-15.426903,-42.535101
2639.110000,3.910000,-1.653553,-0.462280,12.343434,0.000000,1.683809,0.000000,16.761482,-15.426903,-42.250010
2639.120000,3.920000,-1.533497,-0.471802,12.662526,0.000000,1.565485,-0.000000,17.447356,-15.426903,-41.971424
2639.130000,3.930000,-1.402073,-0.479784,12.965906,0.000000,1.445391,-0.000000,18.075940,-15.426903,-41.704569
2639.140000,3.940000,-1.266115,-0.486201,13.242358,0.000000,1.347554,0.000000,18.653242,-15.426903,-41.449575
2639.150000,3.950000,-1.101100,-0.491032,13.482534,0.000000,1.278517,0.000000,19.193256,-15.426903,-41.202301
2639.160000,3.960000,-0.884245,-0.494262,13.680238,0.000000,1.224605,0.000000,19.706936,-15.426903,-40.959093
2639.170000,3.970000,-0.627151,-0.495879,13.831485,0.000000,1.169098,-0.000000,20.196555,-15.426903,-40.719895
2639.180000,3.980000,-0.374680,-0.495879,13.932934,0.000000,1.107779,-0.000000,20.659188,-15.426903,-40.487142
2639.190000,3.990000,-0.170745,-0.494262,13.981369,0.000000,1.050490,-0.000000,21.093716,-15.426903,-40.262462
2639.200000,4.000000,-0.019908,-0.491032,13.974415,0.000000,1.013154,0.000000,21.505209,-15.426903,-40.044184
2639.210000,4.010000,0.124442,-0.486201,13.911487,0.000000,1.008549,0.000000,21.905185,-15.426903,-39.826794
2639.220000,4.020000,0.335370,-0.479784,13.794284,0.000000,1.038283,-0.000000,22.308523,-15.426903,-39.602279
2639.230000,4.030000,0.667623,-0.471802,13.626872,0.000000,1.088146,0.000000,22.727447,-15.426903,-39.363356
2639.240000,4.040000,1.124024,-0.462280,13.415129,0.000000,1.133615,0.000000,23.165050,-15.426903,-39.107430
2639.250000,4.050000,1.656614,-0.451252,13.165330,0.000000,1.156223,-0.000000,23.614006,-15.426903,-38.837989
2639.260000,4.060000,2.199991,-0.438751,12.882950,0.000000,1.156707,0.000000,24.063134,-15.426903,-38.561331
2639.270000,4.070000,2.709012,-0.424819,12.573231,0.000000,1.150122,-0.000000,24.506110,-15.426903,-38.281343
2639.280000,4.080000,3.171111,-0.409501,12.242793,0.000000,1.147496,-0.000000,24.943715,-15.426903,-37.997655
2639.290000,4.090000,3.588542,-0.392848,11.900036,0.000000,1.144022,-0.000000,25.378153,-15.426903,-37.708885
2639.300000,4.100000,3.954527,-0.374913,11.553663,0.000000,1.126275,0.000000,25.806532,-15.426903,-37.417023
2639.310000,4.110000,4.250032,-0.355756,11.210978,0.000000,1.089559,0.000000,26.221072,-15.426903,-37.127699
2639.320000,4.120000,4.462105,-0.335438,10.877818,0.000000,1.045195,-0.000000,26.615717,-15.426903,-36.845818
2639.330000,4.130000,4.599365,-0.314026,10.559886,0.000000,1.009014,0.000000,26.991414,-15.426903,-36.571495
2639.340000,4.140000,4.683811,-0.291589,10.263423,0.000000,0.984003,-0.000000,27.353819,-15.426903,-36.301229
2639.350000,4.150000,4.726109,-0.268202,9.994221,0.000000,0.957539,-0.000000,27.705882,-15.426903,-36.033245
2639.360000,4.160000,4.710922,-0.243940,9.756202,0.000000,0.916981,-0.000000,28.043968,-15.426903,-35.770750
2639.370000,4.170000,4.607210,-0.218882,9.551303,0.000000,0.865280,0.000000,28.362031,-15.426903,-35.519092
2639.380000,4.180000,4.389775,-0.193110,9.380827,0.000000,0.818299,0.000000,28.658780,-15.426903,-35.280093
2639.390000,4.190000,4.047127,-0.166708,9.246586,0.000000,0.787779,0.000000,28.939518,-15.426903,-35.050178
2639.400000,4.200000,3.570758,-0.139762,9.150540,0.000000,0.770833,0.000000,29.211065,-15.426903,-34.824193
2639.410000,4.210000,2.947267,-0.112361,9.093769,0.000000,0.759075,0.000000,29.476419,-15.426903,-34.599875
2639.420000,4.220000,2.172637,-0.084593,9.076271,0.000000,0.757436,-0.000000,29.736366,-15.426903,-34.376725
2639.430000,4.230000,1.276573,-0.056549,9.097723,0.000000,0.789020,-0.000000,29.997166,-15.426903,-34.149388
2639.440000,4.240000,0.322716,-0.028321,9.157924,0.000000,0.875283,0.000000,30.275125,-15.426903,-33.903207
2639.450000,4.250000,-0.628709,-0.000000,9.256612,0.000000,1.010690,0.000000,30.590354,-15.426903,-33.619056
2639.460000,4.260000,-1.562748,0.028321,9.393432,0.000000,1.164180,-0.000000,30.954218,-15.426903,-33.284337
2639.470000,4.270000,-2.505860,0.056549,9.567203,0.000000,1.312542,-0.000000,31.364782,-15.426903,-32.897737
2639.480000,4.280000,-3.467580,0.084593,9.773250,0.000000,1.469391,0.000000,31.817219,-15.426903,-32.460364
2639.490000,4.290000,-4.381176,0.112361,10.000452,0.000000,1.672513,0.000000,32.317927,-15.426903,-31.961888
2639.500000,4.300000,-5.109878,0.139762,10.231677,0.000000,1.939001,-0.000000,32.885075,-15.426903,-31.378058
2639.510000,4.310000,-5.527290,0.166708,10.449691,0.000000,2.236619,-0.000000,33.532877,-15.426903,-30.684799
2639.520000,4.320000,-5.607522,0.193110,10.643798,0.000000,2.503553,-0.000000,34.255439,-15.426903,-29.876003
2639.530000,4.330000,-5.447805,0.218882,10.808645,0.000000,2.695477,-0.000000,35.026781,-15.426903,-28.967832
2639.540000,4.340000,-5.205736,0.243940,10.936777,0.000000,2.811750,0.000000,35.815679,-15.426903,-27.986565
2639.550000,4.350000,-5.005025,0.268202,11.015869,0.000000,2.880937,0.000000,36.599759,-15.426903,-26.953076
2639.560000,4.360000,-4.881866,0.291589,11.034123,0.000000,2.929115,0.000000,37.368108,-15.426903,-25.877310
2639.570000,4.370000,-4.800542,0.314026,10.986810,0.000000,2.962424,0.000000,38.115252,-15.426903,-24.763648
2639.580000,4.380000,-4.709417,0.335438,10.877700,0.000000,2.971080,-0.000000,38.835038,-15.426903,-23.618859
2639.590000,4.390000,-4.585318,0.355756,10.715385,0.000000,2.942020,-0.000000,39.518807,-15.426903,-22.456059
2639.600000,4.400000,-4.434702,0.374913,10.508259,0.000000,2.869255,-0.000000,40.156953,-15.426903,-21.293892
2639.610000,4.410000,-4.260181,0.392848,10.262087,0.000000,2.759234,0.000000,40.741851,-15.426903,-20.152227
2639.620000,4.420000,-4.030352,0.409501,9.981749,0.000000,2.628090,0.000000,41.270456,-15.426903,-19.046263
2639.630000,4.430000,-3.689294,0.424819,9.675547,0.000000,2.487067,-0.000000,41.744443,-15.426903,-17.983664
2639.640000,4.440000,-3.207404,0.438751,9.358255,0.000000,2.324459,-0.000000,42.166494,-15.426903,-16.970488
2639.650000,4.450000,-2.631069,0.451252,9.049364,0.000000,2.106032,0.000000,42.535153,-15.426903,-16.024088
2639.660000,4.460000,-2.076462,0.462280,8.766896,0.000000,1.804935,0.000000,42.843739,-15.426903,-15.179747
2639.670000,4.470000,-1.656495,0.471802,8.523084,0.000000,1.436541,-0.000000,43.085794,-15.426903,-14.478432
2639.680000,4.480000,-1.397807,0.479784,8.327162,0.000000,1.055006,-0.000000,43.262138,-15.426903,-13.942671
2639.690000,4.490000,-1.225753,0.486201,8.190350,0.000000,0.704624,0.000000,43.381683,-15.426903,-13.566143
2639.700000,4.500000,-1.035598,0.491032,8.125582,0.000000,0.376546,-0.000000,43.454325,-15.426903,-13.331629
2639.710000,4.510000,-0.781156,0.494262,8.143451,0.000000,0.022597,-0.000000,43.482618,-15.426903,-13.239056
2639.720000,4.520000,-0.492353,0.495879,8.250101,0.000000,-0.387177,-0.000000,43.460345,-15.426903,-13.311989
2639.730000,4.530000,-0.210016,0.495879,8.449478,0.000000,-0.828624,-0.000000,43.378798,-15.426903,-13.575367
2639.740000,4.540000,0.081175,0.494262,8.746339,0.000000,-1.251110,0.000000,43.233772,-15.426903,-14.030384
2639.750000,4.550000,0.438863,0.491032,9.144148,0.000000,-1.638300,0.000000,43.025558,-15.426903,-14.656467
2639.760000,4.560000,0.881127,0.486201,9.639749,0.000000,-2.031524,-0.000000,42.750905,-15.426903,-15.439263
2639.770000,4.570000,1.334000,0.479784,10.222691,0.000000,-2.484675,-0.000000,42.394666,-15.426903,-16.392161
2639.780000,4.580000,1.678491,0.471802,10.881694,0.000000,-2.998691,0.000000,41.931122,-15.426903,-17.543992
2639.790000,4.590000,1.854787,0.462280,11.611590,0.000000,-3.512621,-0.000000,41.335760,-15.426903,-18.904116
2639.800000,4.600000,1.912658,0.451252,12.409440,0.000000,-3.965490,-0.000000,40.595897,-15.426903,-20.444653
2639.810000,4.610000,1.951935,0.438751,13.260431,0.000000,-4.358067,-0.000000,39.707652,-15.426903,-22.120421
2639.820000,4.620000,2.014870,0.424819,14.131622,0.000000,-4.743762,0.000000,38.661398,-15.426903,-23.902029
2639.830000,4.630000,2.042187,0.409501,14.983637,0.000000,-5.162639,0.000000,37.432619,-15.426903,-25.783903
2639.840000,4.640000,1.933804,0.392848,15.788027,0.000000,-5.594923,-0.000000,35.990644,-15.426903,-27.761200
2639.850000,4.650000,1.646115,0.374913,16.531823,0.000000,-5.981640,0.000000,34.317600,-15.426903,-29.804580
2639.860000,4.660000,1.228730,0.355756,17.205313,0.000000,-6.283144,0.000000,32.417886,-15.426903,-31.860498
2639.870000,4.670000,0.778146,0.335438,17.790945,0.000000,-6.510262,-0.000000,30.308710,-15.426903,-33.873187
2639.880000,4.680000,0.376829,0.314026,18.272984,0.000000,-6.700683,0.000000,28.003483,-15.426903,-35.802452
2639.890000,4.690000,0.090798,0.291589,18.658431,0.000000,-6.873088,0.000000,25.507273,-15.426903,-37.621665
2639.900000,4.700000,-0.001567,0.268202,18.970826,0.000000,-7.007818,0.000000,22.829078,-15.426903,-39.304502
2639.910000,4.710000,0.109973,0.243940,19.186452,0.000000,-7.071797,0.000000,19.996790,-15.426903,-40.818367
2639.920000,4.720000,0.063737,0.218882,19.142755,0.000000,-7.074595,-0.000000,17.055589,-15.426903,-42.132144
2639.930000,4.730000,-1.241465,0.193110,18.534864,0.000000,-7.126444,-0.000000,14.035626,-15.426903,-43.232070
2639.940000,4.740000,-5.540864,0.166708,17.139020,0.000000,-7.411114,-0.000000,10.892571,-15.426903,-44.128931
2639.950000,4.750000,-14.103529,0.139762,15.260863,0.000000,-7.923826,0.000000,7.491095,-15.426903,-44.831843
2639.960000,4.760000,-25.926134,0.112361,13.943060,0.000000,-8.040867,0.000000,3.784349,-15.426903,-45.295578
2639.970000,4.770000,-36.748993,0.084593,13.915075,0.000000,-6.554902,-0.000000,0.207823,-15.426903,-45.452915
2639.980000,4.780000,-40.789280,0.056549,13.858916,0.000000,-2.814852,-0.000000,-2.174080,-15.426903,-45.401366
2639.990000,4.790000,-34.664810,0.028321,11.792302,0.000000,1.873023,0.000000,-2.351109,-15.426903,-45.392543
2640.000000,4.800000,-20.196854,0.000000,8.821087,0.000000,4.736899,-0.000000,-0.471661,-15.426903,-45.450943
2640.010000,4.810000,-4.156095,-0.028321,7.578847,0.000000,4.162238,0.000000,1.955091,-15.426903,-45.411323
2640.020000,4.820000,5.889482,-0.056549,7.762211,0.000000,1.384426,0.000000,3.310509,-15.426903,-45.332673
2640.030000,4.830000,6.713317,-0.084593,7.754167,0.000000,-0.957119,-0.000000,3.211754,-15.426903,-45.339776
2640.040000,4.840000,0.630789,-0.112361,7.580446,0.000000,-1.423829,-0.000000,2.442143,-15.426903,-45.387736
2640.050000,4.850000,-7.173863,-0.139762,7.697789,0.000000,-0.470117,-0.000000,1.919456,-15.426903,-45.412844
2640.060000,4.860000,-12.443114,-0.166708,7.926637,0.000000,0.786335,0.000000,2.015278,-15.426903,-45.408692
2640.070000,4.870000,-13.836672,-0.193110,8.086442,0.000000,1.695215,-0.000000,2.633403,-15.426903,-45.377041
2640.080000,4.880000,-12.392288,-0.218882,8.257422,0.000000,2.189073,-0.000000,3.553458,-15.426903,-45.314276
2640.090000,4.890000,-9.876849,-0.243940,8.523672,0.000000,2.420407,0.000000,4.617078,-15.426903,-45.218285
2640.100000,4.900000,-7.555585,-0.268202,8.864459,0.000000,2.520460,-0.000000,5.742232,-15.426903,-45.089217
2640.110000,4.910000,-5.881114,-0.291589,9.219185,0.000000,2.560958,-0.000000,6.889906,-15.426903,-44.928163
2640.120000,4.920000,-4.764048,-0.314026,9.549941,0.000000,2.579089,0.000000,8.043374,-15.426903,-44.736057
2640.130000,4.930000,-3.947601,-0.335438,9.852217,0.000000,2.585802,-0.000000,9.197444,-15.426903,-44.513118
2640.140000,4.940000,-3.247387,-0.355756,10.140171,0.000000,2.564269,-0.000000,10.345416,-15.426903,-44.260400
2640.150000,4.950000,-2.625028,-0.374913,10.430671,0.000000,2.486050,0.000000,11.467470,-15.426903,-43.983040
2640.160000,4.960000,-2.141211,-0.392848,10.733147,0.000000,2.343356,0.000000,12.532620,-15.426903,-43.691465
2640.170000,4.970000,-1.856250,-0.409501,11.047400,0.000000,2.166390,0.000000,13.515668,-15.426903,-43.397435
2640.180000,4.980000,-1.754895,-0.424819,11.368547,0.000000,2.003316,0.000000,14.413468,-15.426903,-43.107570
2640.190000,4.990000,-1.746532,-0.438751,11.692728,0.000000,1.880456,-0.000000,15.243247,-15.426903,-42.821188
2640.200000,5.000000,-1.729098,-0.451252,12.018338,0.000000,1.784380,0.000000,16.024226,-15.426903,-42.535101
2640.210000,5.010000,-1.653553,-0.462280,12.343434,0.000000,1.683809,0.000000,16.761482,-15.426903,-42.250010
2640.220000,5.020000,-1.533497,-0.471802,12.662526,0.000000,1.565485,-0.000000,17.447356,-15.426903,-41.971424
2640.230000,5.030000,-1.402073,-0.479784,12.965906,0.000000,1.445391,-0.000000,18.075940,-15.426903,-41.704569
2640.240000,5.040000,-1.266115,-0.486201,13.242358,0.000000,1.347554,0.000000,18.653242,-15.426903,-41.449575
2640.250000,5.050000,-1.101100,-0.491032,13.482534,0.000000,1.278517,0.000000,19.193256,-15.426903,-41.202301
2640.260000,5.060000,-0.884245,-0.494262,13.680238,0.000000,1.224605,0.000000,19.706936,-15.426903,-40.959093
2640.270000,5.070000,-0.627151,-0.495879,13.831485,0.000000,1.169098,-0.000000,20.196555,-15.426903,-40.719895
2640.280000,5.080000,-0.374680,-0.495879,13.932934,0.000000,1.107779,-0.000000,20.659188,-15.426903,-40.487142
2640.290000,5.090000,-0.170745,-0.494262,13.981369,0.000000,1.050490,-0.000000,21.093716,-15.426903,-40.262462
2640.300000,5.100000,-0.019908,-0.491032,13.974415,0.000000,1.013154,0.000000,21.505209,-15.426903,-40.044184
2640.310000,5.110000,0.124442,-0.486201,13.911487,0.000000,1.008549,0.000000,21.905185,-15.426903,-39.826794
2640.320000,5.120000,0.335370,-0.479784,13.794284,0.000000,1.038283,-0.000000,22.308523,-15.426903,-39.602279
2640.330000,5.130000,0.667623,-0.471802,13.626872,0.000000,1.088146,0.000000,22.727447,-15.426903,-39.363356
2640.340000,5.140000,1.124024,-0.462280,13.415129,0.000000,1.133615,0.000000,23.165050,-15.426903,-39.107430
2640.350000,5.150000,1.656614,-0.451252,13.165330,0.000000,1.156223,-0.000000,23.614006,-15.426903,-38.837989
2640.360000,5.160000,2.199991,-0.438751,12.882950,0.000000,1.156707,0.000000,24.063134,-15.426903,-38.561331
2640.370000,5.170000,2.709012,-0.424819,12.573231,0.000000,1.150122,-0.000000,24.506110,-15.426903,-38.281343
2640.380000,5.180000,3.171111,-0.409501,12.242793,0.000000,1.147496,-0.000000,24.943715,-15.426903,-37.997655
2640.390000,5.190000,3.588542,-0.392848,11.900036,0.000000,1.144022,-0.000000,25.378153,-15.426903,-37.708885
2640.400000,5.200000,3.954527,-0.374913,11.553663,0.000000,1.126275,0.000000,25.806532,-15.426903,-37.417023
2640.410000,5.210000,4.250032,-0.355756,11.210978,0.000000,1.089559,0.000000,26.221072,-15.426903,-37.127699
2640.420000,5.220000,4.462105,-0.335438,10.877818,0.000000,1.045195,-0.000000,26.615717,-15.426903,-36.845818
2640.430000,5.230000,4.599365,-0.314026,10.559886,0.000000,1.009014,0.000000,26.991414,-15.426903,-36.571495
2640.440000,5.240000,4.683811,-0.291589,10.263423,0.000000,0.984003,-0.000000,27.353819,-15.426903,-36.301229
2640.450000,5.250000,4.726109,-0.268202,9.994221,0.000000,0.957539,-0.000000,27.705882,-15.426903,-36.033245
2640.460000,5.260000,4.710922,-0.243940,9.756202,0.000000,0.916981,-0.000000,28.043968,-15.426903,-35.770750
2640.470000,5.270000,4.607210,-0.218882,9.551303,0.000000,0.865280,0.000000,28.362031,-15.426903,-35.519092
2640.480000,5.280000,4.389775,-0.193110,9.380827,0.000000,0.818299,0.000000,28.658780,-15.426903,-35.280093
2640.490000,5.290000,4.047127,-0.166708,9.246586,0.000000,0.787779,0.000000,28.939518,-15.426903,-35.050178
2640.500000,5.300000,3.570758,-0.139762,9.150540,0.000000,0.770833,0.000000,29.211065,-15.426903,-34.824193
2640.510000,5.310000,2.947267,-0.112361,9.093769,0.000000,0.759075,0.000000,29.476419,-15.426903,-34.599875
2640.520000,5.320000,2.172637,-0.084593,9.076271,0.000000,0.757436,-0.000000,29.736366,-15.426903,-34.376725
2640.530000,5.330000,1.276573,-0.056549,9.097723,0.000000,0.789020,-0.000000,29.997166,-15.426903,-34.149388
2640.540000,5.340000,0.322716,-0.028321,9.157924,0.000000,0.875283,0.000000,30.275125,-15.426903,-33.903207
2640.550000,5.350000,-0.628709,-0.000000,9.256612,0.000000,1.010690,0.000000,30.590354,-15.426903,-33.619056
2640.560000,5.360000,-1.562748,0.028321,9.393432,0.000000,1.164180,0.000000,30.954218,-15.426903,-33.284337
2640.570000,5.370000,-2.505860,0.056549,9.567203,0.000000,1.312542,-0.000000,31.364782,-15.426903,-32.897737
2640.580000,5.380000,-3.467580,0.084593,9.773250,0.000000,1.469391,-0.000000,31.817219,-15.426903,-32.460364
2640.590000,5.390000,-4.381176,0.112361,10.000452,0.000000,1.672513,0.000000,32.317927,-15.426903,-31.961888
2640.600000,5.400000,-5.109878,0.139762,10.231677,0.000000,1.939001,-0.000000,32.885075,-15.426903,-31.378058
2640.610000,5.410000,-5.527290,0.166708,10.449691,0.000000,2.236619,-0.000000,33.532877,-15.426903,-30.684799
2640.620000,5.420000,-5.607522,0.193110,10.643798,0.000000,2.503553,-0.000000,34.255439,-15.426903,-29.876003
2640.630000,5.430000,-5.447805,0.218882,10.808645,0.000000,2.695477,-0.000000,35.026781,-15.426903,-28.967832
2640.640000,5.440000,-5.205736,0.243940,10.936777,0.000000,2.811750,0.000000,35.815679,-15.426903,-27.986565
2640.650000,5.450000,-5.005025,0.268202,11.015869,0.000000,2.880937,0.000000,36.599759,-15.426903,-26.953076
2640.660000,5.460000,-4.881866,0.291589,11.034123,0.000000,2.929115,0.000000,37.368108,-15.426903,-25.877310
2640.670000,5.470000,-4.800542,0.314026,10.986810,0.000000,2.962424,-0.000000,38.115252,-15.426903,-24.763648
2640.680000,5.480000,-4.709417,0.335438,10.877700,0.000000,2.971080,-0.000000,38.835038,-15.426903,-23.618859
2640.690000,5.490000,-4.585318,0.355756,10.715385,0.000000,2.942020,0.000000,39.518807,-15.426903,-22.456059
2640.700000,5.500000,-4.434702,0.374913,10.508259,0.000000,2.869255,0.000000,40.156953,-15.426903,-21.293892
2640.710000,5.510000,-4.260181,0.392848,10.262087,0.000000,2.759234,0.000000,40.741851,-15.426903,-20.152227
2640.720000,5.520000,-4.030352,0.409501,9.981749,0.000000,2.628090,-0.000000,41.270456,-15.426903,-19.046263
2640.730000,5.530000,-3.689294,0.424819,9.675547,0.000000,2.487067,-0.000000,41.744443,-15.426903,-17.983664
2640.740000,5.540000,-3.207404,0.438751,9.358255,0.000000,2.324459,0.000000,42.166494,-15.426903,-16.970488
2640.750000,5.550000,-2.631069,0.451252,9.049364,0.000000,2.106032,0.000000,42.535153,-15.426903,-16.024088
2640.760000,5.560000,-2.076462,0.462280,8.766896,0.000000,1.804935,-0.000000,42.843739,-15.426903,-15.179747
2640.770000,5.570000,-1.656495,0.471802,8.523084,0.000000,1.436541,0.000000,43.085794,-15.426903,-14.478432
2640.780000,5.580000,-1.397807,0.479784,8.327162,0.000000,1.055006,0.000000,43.262138,-15.426903,-13.942671
2640.790000,5.590000,-1.225753,0.486201,8.190350,0.000000,0.704624,-0.000000,43.381683,-15.426903,-13.566143
2640.800000,5.600000,-1.035598,0.491032,8.125582,0.000000,0.376546,-0.000000,43.454325,-15.426903,-13.331629
2640.810000,5.610000,-0.781156,0.494262,8.143451,0.000000,0.022597,-0.000000,43.482618,-15.426903,-13.239056
2640.820000,5.620000,-0.492353,0.495879,8.250101,0.000000,-0.387177,0.000000,43.460345,-15.426903,-13.311989
2640.830000,5.630000,-0.210016,0.495879,8.449478,0.000000,-0.828624,0.000000,43.378798,-15.426903,-13.575367
2640.840000,5.640000,0.081175,0.494262,8.746339,0.000000,-1.251110,-0.000000,43.233772,-15.426903,-14.030384
2640.850000,5.650000,0.438863,0.491032,9.144148,0.000000,-1.638300,-0.000000,43.025558,-15.426903,-14.656467
2640.860000,5.660000,0.881127,0.486201,9.639749,0.000000,-2.031524,0.000000,42.750905,-15.426903,-15.439263
2640.870000,5.670000,1.334000,0.479784,10.222691,0.000000,-2.484675,0.000000,42.394666,-15.426903,-16.392161
2640.880000,5.680000,1.678491,0.471802,10.881694,0.000000,-2.998691,0.000000,41.931122,-15.426903,-17.543992
2640.890000,5.690000,1.854787,0.462280,11.611590,0.000000,-3.512621,-0.000000,41.335760,-15.426903,-18.904116
2640.900000,5.700000,1.912658,0.451252,12.409440,0.000000,-3.965490,0.000000,40.595897,-15.426903,-20.444653
2640.910000,5.710000,1.951935,0.438751,13.260431,0.000000,-4.358067,0.000000,39.707652,-15.426903,-22.120421
2640.920000,5.720000,2.014870,0.424819,14.131622,0.000000,-4.743762,-0.000000,38.661398,-15.426903,-23.902029
2640.930000,5.730000,2.042187,0.409501,14.983637,0.000000,-5.162639,0.000000,37.432619,-15.426903,-25.783903
2640.940000,5.740000,1.933804,0.392848,15.788027,0.000000,-5.594923,-0.000000,35.990644,-15.426903,-27.761200
2640.950000,5.750000,1.646115,0.374913,16.531823,0.000000,-5.981640,0.000000,34.317600,-15.426903,-29.804580
2640.960000,5.760000,1.228730,0.355756,17.205313,0.000000,-6.283144,0.000000,32.417886,-15.426903,-31.860498
2640.970000,5.770000,0.778146,0.335438,17.790945,0.000000,-6.510262,-0.000000,30.308710,-15.426903,-33.873187
2640.980000,5.780000,0.376829,0.314026,18.272984,0.000000,-6.700683,-0.000000,28.003483,-15.426903,-35.802452
2640.990000,5.790000,0.090798,0.291589,18.658431,0.000000,-6.873088,-0.000000,25.507273,-15.426903,-37.621665
2641.000000,5.800000,-0.001567,0.268202,18.970826,0.000000,-7.007818,-0.000000,22.829078,-15.426903,-39.304502
2641.010000,5.810000,0.109973,0.243940,19.186452,0.000000,-7.071797,0.000000,19.996790,-15.426903,-40.818367
2641.020000,5.820000,0.063737,0.218882,19.142755,0.000000,-7.074595,0.000000,17.055589,-15.426903,-42.132144
2641.030000,5.830000,-1.241465,0.193110,18.534864,0.000000,-7.126444,-0.000000,14.035626,-15.426903,-43.232070
2641.040000,5.840000,-5.540864,0.166708,17.139020,0.000000,-7.411114,0.000000,10.892571,-15.426903,-44.128931
2641.050000,5.850000,-14.103529,0.139762,15.260863,0.000000,-7.923826,0.000000,7.491095,-15.426903,-44.831843
2641.060000,5.860000,-25.926134,0.112361,13.943060,0.000000,-8.040867,0.000000,3.784349,-15.426903,-45.295578
2641.070000,5.870000,-36.748993,0.084593,13.915075,0.000000,-6.554902,-0.000000,0.207823,-15.426903,-45.452915
2641.080000,5.880000,-40.789280,0.056549,13.858916,0.000000,-2.814852,-0.000000,-2.174080,-15.426903,-45.401366
2641.090000,5.890000,-34.664810,0.028321,11.792302,0.000000,1.873023,0.000000,-2.351109,-15.426903,-45.392543
2641.100000,5.900000,-20.196854,0.000000,8.821087,0.000000,4.736899,0.000000,-0.471661,-15.426903,-45.450943
2641.110000,5.910000,-4.156095,-0.028321,7.578847,0.000000,4.162238,-0.000000,1.955091,-15.426903,-45.411323
2641.120000,5.920000,5.889482,-0.056549,7.762211,0.000000,1.384426,-0.000000,3.310509,-15.426903,-45.332673
2641.130000,5.930000,6.713317,-0.084593,7.754167,0.000000,-0.957119,0.000000,3.211754,-15.426903,-45.339776
2641.140000,5.940000,0.630789,-0.112361,7.580446,0.000000,-1.423829,0.000000,2.442143,-15.426903,-45.387736
2641.150000,5.950000,-7.173863,-0.139762,7.697789,0.000000,-0.470117,-0.000000,1.919456,-15.426903,-45.412844
2641.160000,5.960000,-12.443114,-0.166708,7.926637,0.000000,0.786335,0.000000,2.015278,-15.426903,-45.408692
2641.170000,5.970000,-13.836672,-0.193110,8.086442,0.000000,1.695215,0.000000,2.633403,-15.426903,-45.377041
2641.180000,5.980000,-12.392288,-0.218882,8.257422,0.000000,2.189073,-0.000000,3.553458,-15.426903,-45.314276
2641.190000,5.990000,-9.876849,-0.243940,8.523672,0.000000,2.420407,-0.000000,4.617078,-15.426903,-45.218285
2641.200000,6.000000,-7.555585,-0.268202,8.864459,0.000000,2.520460,0.000000,5.742232,-15.426903,-45.089217
2641.210000,6.010000,-5.881114,-0.291589,9.219185,0.000000,2.560958,0.000000,6.889906,-15.426903,-44.928163
2641.220000,6.020000,-4.764048,-0.314026,9.549941,0.000000,2.579089,0.000000,8.043374,-15.426903,-44.736057
2641.230000,6.030000,-3.947601,-0.335438,9.852217,0.000000,2.585802,-0.000000,9.197444,-15.426903,-44.513118
2641.240000,6.040000,-3.247387,-0.355756,10.140171,0.000000,2.564269,-0.000000,10.345416,-15.426903,-44.260400
2641.250000,6.050000,-2.625028,-0.374913,10.430671,0.000000,2.486050,0.000000,11.467470,-15.426903,-43.983040
2641.260000,6.060000,-2.141211,-0.392848,10.733147,0.000000,2.343356,0.000000,12.532620,-15.426903,-43.691465
2641.270000,6.070000,-1.856250,-0.409501,11.047400,0.000000,2.166390,0.000000,13.515668,-15.426903,-43.397435
2641.280000,6.080000,-1.754895,-0.424819,11.368547,0.000000,2.003316,0.000000,14.413468,-15.426903,-43.107570
2641.290000,6.090000,-1.746532,-0.438751,11.692728,0.000000,1.880456,-0.000000,15.243247,-15.426903,-42.821188
2641.300000,6.100000,-1.729098,-0.451252,12.018338,0.000000,1.784380,0.000000,16.024226,-15.426903,-42.535101
2641.310000,6.110000,-1.653553,-0.462280,12.343434,0.000000,1.683809,0.000000,16.761482,-15.426903,-42.250010
2641.320000,6.120000,-1.533497,-0.471802,12.662526,0.000000,1.565485,-0.000000,17.447356,-15.426903,-41.971424
2641.330000,6.130000,-1.402073,-0.479784,12.965906,0.000000,1.445391,-0.000000,18.075940,-15.426903,-41.704569
2641.340000,6.140000,-1.266115,-0.486201,13.242358,0.000000,1.347554,0.000000,18.653242,-15.426903,-41.449575
2641.350000,6.150000,-1.101100,-0.491032,13.482534,0.000000,1.278517,0.000000,19.193256,-15.426903,-41.202301
2641.360000,6.160000,-0.884245,-0.494262,13.680238,0.000000,1.224605,0.000000,19.706936,-15.426903,-40.959093
2641.370000,6.170000,-0.627151,-0.495879,13.831485,0.000000,1.169098,0.000000,20.196555,-15.426903,-40.719895
2641.380000,6.180000,-0.374680,-0.495879,13.932934,0.000000,1.107779,-0.000000,20.659188,-15.426903,-40.487142
2641.390000,6.190000,-0.170745,-0.494262,13.981369,0.000000,1.050490,-0.000000,21.093716,-15.426903,-40.262462
2641.400000,6.200000,-0.019908,-0.491032,13.974415,0.000000,1.013154,0.000000,21.505209,-15.426903,-40.044184
2641.410000,6.210000,0.124442,-0.486201,13.911487,0.000000,1.008549,0.000000,21.905185,-15.426903,-39.826794
2641.420000,6.220000,0.335370,-0.479784,13.794284,0.000000,1.038283,-0.000000,22.308523,-15.426903,-39.602279
2641.430000,6.230000,0.667623,-0.471802,13.626872,0.000000,1.088146,-0.000000,22.727447,-15.426903,-39.363356
2641.440000,6.240000,1.124024,-0.462280,13.415129,0.000000,1.133615,0.000000,23.165050,-15.426903,-39.107430
2641.450000,6.250000,1.656614,-0.451252,13.165330,0.000000,1.156223,0.000000,23.614006,-15.426903,-38.837989
2641.460000,6.260000,2.199991,-0.438751,12.882950,0.000000,1.156707,-0.000000,24.063134,-15.426903,-38.561331
2641.470000,6.270000,2.709012,-0.424819,12.573231,0.000000,1.150122,-0.000000,24.506110,-15.426903,-38.281343
2641.480000,6.280000,3.171111,-0.409501,12.242793,0.000000,1.147496,0.000000,24.943715,-15.426903,-37.997655
2641.490000,6.290000,3.588542,-0.392848,11.900036,0.000000,1.144022,-0.000000,25.378153,-15.426903,-37.708885
2641.500000,6.300000,3.954527,-0.374913,11.553663,0.000000,1.126275,0.000000,25.806532,-15.426903,-37.417023
2641.510000,6.310000,4.250032,-0.355756,11.210978,0.000000,1.089559,0.000000,26.221072,-15.426903,-37.127699
2641.520000,6.320000,4.462105,-0.335438,10.877818,0.000000,1.045195,-0.000000,26.615717,-15.426903,-36.845818
2641.530000,6.330000,4.599365,-0.314026,10.559886,0.000000,1.009014,0.000000,26.991414,-15.426903,-36.571495
2641.540000,6.340000,4.683811,-0.291589,10.263423,0.000000,0.984003,-0.000000,27.353819,-15.426903,-36.301229
2641.550000,6.350000,4.726109,-0.268202,9.994221,0.000000,0.957539,-0.000000,27.705882,-15.426903,-36.033245
2641.560000,6.360000,4.710922,-0.243940,9.756202,0.000000,0.916981,-0.000000,28.043968,-15.426903,-35.770750
2641.570000,6.370000,4.607210,-0.218882,9.551303,0.000000,0.865280,0.000000,28.362031,-15.426903,-35.519092
2641.580000,6.380000,4.389775,-0.193110,9.380827,0.000000,0.818299,0.000000,28.658780,-15.426903,-35.280093
2641.590000,6.390000,4.047127,-0.166708,9.246586,0.000000,0.787779,0.000000,28.939518,-15.426903,-35.050178
2641.600000,6.400000,3.570758,-0.139762,9.150540,0.000000,0.770833,0.000000,29.211065,-15.426903,-34.824193
2641.610000,6.410000,2.947267,-0.112361,9.093769,0.000000,0.759075,0.000000,29.476419,-15.426903,-34.599875
2641.620000,6.420000,2.172637,-0.084593,9.076271,0.000000,0.757436,-0.000000,29.736366,-15.426903,-34.376725
2641.630000,6.430000,1.276573,-0.056549,9.097723,0.000000,0.789020,-0.000000,29.997166,-15.426903,-34.149388
2641.640000,6.440000,0.322716,-0.028321,9.157924,0.000000,0.875283,0.000000,30.275125,-15.426903,-33.903207
2641.650000,6.450000,-0.628709,-0.000000,9.256612,0.000000,1.010690,0.000000,30.590354,-15.426903,-33.619056
2641.660000,6.460000,-1.562748,0.028321,9.393432,0.000000,1.164180,0.000000,30.954218,-15.426903,-33.284337
2641.670000,6.470000,-2.505860,0.056549,9.567203,0.000000,1.312542,-0.000000,31.364782,-15.426903,-32.897737
2641.680000,6.480000,-3.467580,0.084593,9.773250,0.000000,1.469391,-0.000000,31.817219,-15.426903,-32.460364
2641.690000,6.490000,-4.381176,0.112361,10.000452,0.000000,1.672513,-0.000000,32.317927,-15.426903,-31.961888
2641.700000,6.500000,-5.109878,0.139762,10.231677,0.000000,1.939001,-0.000000,32.885075,-15.426903,-31.378058
2641.710000,6.510000,-5.527290,0.166708,10.449691,0.000000,2.236619,-0.000000,33.532877,-15.426903,-30.684799
2641.720000,6.520000,-5.607522,0.193110,10.643798,0.000000,2.503553,0.000000,34.255439,-15.426903,-29.876003
2641.730000,6.530000,-5.447805,0.218882,10.808645,0.000000,2.695477,0.000000,35.026781,-15.426903,-28.967832
2641.740000,6.540000,-5.205736,0.243940,10.936777,0.000000,2.811750,-0.000000,35.815679,-15.426903,-27.986565
2641.750000,6.550000,-5.005025,0.268202,11.015869,0.000000,2.880937,0.000000,36.599759,-15.426903,-26.953076
2641.760000,6.560000,-4.881866,0.291589,11.034123,0.000000,2.929115,-0.000000,37.368108,-15.426903,-25.877310
2641.770000,6.570000,-4.800542,0.314026,10.986810,0.000000,2.962424,0.000000,38.115252,-15.426903,-24.763648
2641.780000,6.580000,-4.709417,0.335438,10.877700,0.000000,2.971080,0.000000,38.835038,-15.426903,-23.618859
2641.790000,6.590000,-4.585318,0.355756,10.715385,0.000000,2.942020,-0.000000,39.518807,-15.426903,-22.456059
2641.800000,6.600000,-4.434702,0.374913,10.508259,0.000000,2.869255,-0.000000,40.156953,-15.426903,-21.293892
2641.810000,6.610000,-4.260181,0.392848,10.262087,0.000000,2.759234,0.000000,40.741851,-15.426903,-20.152227
2641.820000,6.620000,-4.030352,0.409501,9.981749,0.000000,2.628090,0.000000,41.270456,-15.426903,-19.046263
2641.830000,6.630000,-3.689294,0.424819,9.675547,0.000000,2.487067,0.000000,41.744443,-15.426903,-17.983664
2641.840000,6.640000,-3.207404,0.438751,9.358255,0.000000,2.324459,-0.000000,42.166494,-15.426903,-16.970488
2641.850000,6.650000,-2.631069,0.451252,9.049364,0.000000,2.106032,-0.000000,42.535153,-15.426903,-16.024088
2641.860000,6.660000,-2.076462,0.462280,8.766896,0.000000,1.804935,-0.000000,42.843739,-15.426903,-15.179747
2641.870000,6.670000,-1.656495,0.471802,8.523084,0.000000,1.436541,-0.000000,43.085794,-15.426903,-14.478432
2641.880000,6.680000,-1.397807,0.479784,8.327162,0.000000,1.055006,0.000000,43.262138,-15.426903,-13.942671
2641.890000,6.690000,-1.225753,0.486201,8.190350,0.000000,0.704624,0.000000,43.381683,-15.426903,-13.566143
2641.900000,6.700000,-1.035598,0.491032,8.125582,0.000000,0.376546,0.000000,43.454325,-15.426903,-13.331629
2641.910000,6.710000,-0.781156,0.494262,8.143451,0.000000,0.022597,-0.000000,43.482618,-15.426903,-13.239056
2641.920000,6.720000,-0.492353,0.495879,8.250101,0.000000,-0.387177,-0.000000,43.460345,-15.426903,-13.311989
2641.930000,6.730000,-0.210016,0.495879,8.449478,0.000000,-0.828624,0.000000,43.378798,-15.426903,-13.575367
2641.940000,6.740000,0.081175,0.494262,8.746339,0.000000,-1.251110,-0.000000,43.233772,-15.426903,-14.030384
2641.950000,6.750000,0.438863,0.491032,9.144148,0.000000,-1.638300,-0.000000,43.025558,-15.426903,-14.656467
2641.960000,6.760000,0.881127,0.486201,9.639749,0.000000,-2.031524,0.000000,42.750905,-15.426903,-15.439263
2641.970000,6.770000,1.334000,0.479784,10.222691,0.000000,-2.484675,0.000000,42.394666,-15.426903,-16.392161
2641.980000,6.780000,1.678491,0.471802,10.881694,0.000000,-2.998691,-0.000000,41.931122,-15.426903,-17.543992
2641.990000,6.790000,1.854787,0.462280,11.611590,0.000000,-3.512621,0.000000,41.335760,-15.426903,-18.904116
2642.000000,6.800000,1.912658,0.451252,12.409440,0.000000,-3.965490,-0.000000,40.595897,-15.426903,-20.444653
2642.010000,6.810000,1.951935,0.438751,13.260431,0.000000,-4.358067,0.000000,39.707652,-15.426903,-22.120421
2642.020000,6.820000,2.014870,0.424819,14.131622,0.000000,-4.743762,0.000000,38.661398,-15.426903,-23.902029
2642.030000,6.830000,2.042187,0.409501,14.983637,0.000000,-5.162639,0.000000,37.432619,-15.426903,-25.783903
2642.040000,6.840000,1.933804,0.392848,15.788027,0.000000,-5.594923,0.000000,35.990644,-15.426903,-27.761200
2642.050000,6.850000,1.646115,0.374913,16.531823,0.000000,-5.981640,-0.000000,34.317600,-15.426903,-29.804580
2642.060000,6.860000,1.228730,0.355756,17.205313,0.000000,-6.283144,-0.000000,32.417886,-15.426903,-31.860498
2642.070000,6.870000,0.778146,0.335438,17.790945,0.000000,-6.510262,-0.000000,30.308710,-15.426903,-33.873187
2642.080000,6.880000,0.376829,0.314026,18.272984,0.000000,-6.700683,0.000000,28.003483,-15.426903,-35.802452
2642.090000,6.890000,0.090798,0.291589,18.658431,0.000000,-6.873088,0.000000,25.507273,-15.426903,-37.621665
2642.100000,6.900000,-0.001567,0.268202,18.970826,0.000000,-7.007818,-0.000000,22.829078,-15.426903,-39.304502
2642.110000,6.910000,0.109973,0.243940,19.186452,0.000000,-7.071797,0.000000,19.996790,-15.426903,-40.818367
2642.120000,6.920000,0.063737,0.218882,19.142755,0.000000,-7.074595,-0.000000,17.055589,-15.426903,-42.132144
2642.130000,6.930000,-1.241465,0.193110,18.534864,0.000000,-7.126444,-0.000000,14.035626,-15.426903,-43.232070
2642.140000,6.940000,-5.540864,0.166708,17.139020,0.000000,-7.411114,-0.000000,10.892571,-15.426903,-44.128931
2642.150000,6.950000,-14.103529,0.139762,15.260863,0.000000,-7.923826,-0.000000,7.491095,-15.426903,-44.831843
2642.160000,6.960000,-25.926134,0.112361,13.943060,0.000000,-8.040867,0.000000,3.784349,-15.426903,-45.295578
2642.170000,6.970000,-36.748993,0.084593,13.915075,0.000000,-6.554902,-0.000000,0.207823,-15.426903,-45.452915
2642.180000,6.980000,-40.789280,0.056549,13.858916,0.000000,-2.814852,-0.000000,-2.174080,-15.426903,-45.401366
2642.190000,6.990000,-34.664810,0.028321,11.792302,0.000000,1.873023,0.000000,-2.351109,-15.426903,-45.392543
2642.200000,7.000000,-20.196854,0.000000,8.821087,0.000000,4.736899,0.000000,-0.471661,-15.426903,-45.450943
2642.210000,7.010000,-4.156095,-0.028321,7.578847,0.000000,4.162238,0.000000,1.955091,-15.426903,-45.411323
2642.220000,7.020000,5.889482,-0.056549,7.762211,0.000000,1.384426,0.000000,3.310509,-15.426903,-45.332673
2642.230000,7.030000,6.713317,-0.084593,7.754167,0.000000,-0.957119,-0.000000,3.211754,-15.426903,-45.339776
2642.240000,7.040000,0.630789,-0.112361,7.580446,0.000000,-1.423829,-0.000000,2.442143,-15.426903,-45.387736
2642.250000,7.050000,-7.173863,-0.139762,7.697789,0.000000,-0.470117,-0.000000,1.919456,-15.426903,-45.412844
2642.260000,7.060000,-12.443114,-0.166708,7.926637,0.000000,0.786335,0.000000,2.015278,-15.426903,-45.408692
2642.270000,7.070000,-13.836672,-0.193110,8.086442,0.000000,1.695215,0.000000,2.633403,-15.426903,-45.377041
2642.280000,7.080000,-12.392288,-0.218882,8.257422,0.000000,2.189073,-0.000000,3.553458,-15.426903,-45.314276
2642.290000,7.090000,-9.876849,-0.243940,8.523672,0.000000,2.420407,-0.000000,4.617078,-15.426903,-45.218285
2642.300000,7.100000,-7.555585,-0.268202,8.864459,0.000000,2.520460,0.000000,5.742232,-15.426903,-45.089217
2642.310000,7.110000,-5.881114,-0.291589,9.219185,0.000000,2.560958,0.000000,6.889906,-15.426903,-44.928163
2642.320000,7.120000,-4.764048,-0.314026,9.549941,0.000000,2.579089,-0.000000,8.043374,-15.426903,-44.736057
2642.330000,7.130000,-3.947601,-0.335438,9.852217,0.000000,2.585802,-0.000000,9.197444,-15.426903,-44.513118
2642.340000,7.140000,-3.247387,-0.355756,10.140171,0.000000,2.564269,-0.000000,10.345416,-15.426903,-44.260400
2642.350000,7.150000,-2.625028,-0.374913,10.430671,0.000000,2.486050,0.000000,11.467470,-15.426903,-43.983040
2642.360000,7.160000,-2.141211,-0.392848,10.733147,0.000000,2.343356,0.000000,12.532620,-15.426903,-43.691465
2642.370000,7.170000,-1.856250,-0.409501,11.047400,0.000000,2.166390,-0.000000,13.515668,-15.426903,-43.397435
2642.380000,7.180000,-1.754895,-0.424819,11.368547,0.000000,2.003316,0.000000,14.413468,-15.426903,-43.107570
2642.390000,7.190000,-1.746532,-0.438751,11.692728,0.000000,1.880456,0.000000,15.243247,-15.426903,-42.821188
2642.400000,7.200000,-1.729098,-0.451252,12.018338,0.000000,1.784380,0.000000,16.024226,-15.426903,-42.535101
2642.410000,7.210000,-1.653553,-0.462280,12.343434,0.000000,1.683809,0.000000,16.761482,-15.426903,-42.250010
2642.420000,7.220000,-1.533497,-0.471802,12.662526,0.000000,1.565485,-0.000000,17.447356,-15.426903,-41.971424
2642.430000,7.230000,-1.402073,-0.479784,12.965906,0.000000,1.445391,-0.000000,18.075940,-15.426903,-41.704569
2642.440000,7.240000,-1.266115,-0.486201,13.242358,0.000000,1.347554,0.000000,18.653242,-15.426903,-41.449575
2642.450000,7.250000,-1.101100,-0.491032,13.482534,0.000000,1.278517,0.000000,19.193256,-15.426903,-41.202301
2642.460000,7.260000,-0.884245,-0.494262,13.680238,0.000000,1.224605,0.000000,19.706936,-15.426903,-40.959093
2642.470000,7.270000,-0.627151,-0.495879,13.831485,0.000000,1.169098,0.000000,20.196555,-15.426903,-40.719895
2642.480000,7.280000,-0.374680,-0.495879,13.932934,0.000000,1.107779,-0.000000,20.659188,-15.426903,-40.487142
2642.490000,7.290000,-0.170745,-0.494262,13.981369,0.000000,1.050490,-0.000000,21.093716,-15.426903,-40.262462
2642.500000,7.300000,-0.019908,-0.491032,13.974415,0.000000,1.013154,0.000000,21.505209,-15.426903,-40.044184
2642.510000,7.310000,0.124442,-0.486201,13.911487,0.000000,1.008549,0.000000,21.905185,-15.426903,-39.826794
2642.520000,7.320000,0.335370,-0.479784,13.794284,0.000000,1.038283,-0.000000,22.308523,-15.426903,-39.602279
2642.530000,7.330000,0.667623,-0.471802,13.626872,0.000000,1.088146,0.000000,22.727447,-15.426903,-39.363356
2642.540000,7.340000,1.124024,-0.462280,13.415129,0.000000,1.133615,0.000000,23.165050,-15.426903,-39.107430
2642.550000,7.350000,1.656614,-0.451252,13.165330,0.000000,1.156223,-0.000000,23.614006,-15.426903,-38.837989
2642.560000,7.360000,2.199991,-0.438751,12.882950,0.000000,1.156707,0.000000,24.063134,-15.426903,-38.561331
2642.570000,7.370000,2.709012,-0.424819,12.573231,0.000000,1.150122,-0.000000,24.506110,-15.426903,-38.281343
2642.580000,7.380000,3.171111,-0.409501,12.242793,0.000000,1.147496,-0.000000,24.943715,-15.426903,-37.997655
2642.590000,7.390000,3.588542,-0.392848,11.900036,0.000000,1.144022,-0.000000,25.378153,-15.426903,-37.708885
2642.600000,7.400000,3.954527,-0.374913,11.553663,0.000000,1.126275,0.000000,25.806532,-15.426903,-37.417023
2642.610000,7.410000,4.250032,-0.355756,11.210978,0.000000,1.089559,0.000000,26.221072,-15.426903,-37.127699
2642.620000,7.420000,4.462105,-0.335438,10.877818,0.000000,1.045195,-0.000000,26.615717,-15.426903,-36.845818
2642.630000,7.430000,4.599365,-0.314026,10.559886,0.000000,1.009014,0.000000,26.991414,-15.426903,-36.571495
2642.640000,7.440000,4.683811,-0.291589,10.263423,0.000000,0.984003,-0.000000,27.353819,-15.426903,-36.301229
2642.650000,7.450000,4.726109,-0.268202,9.994221,0.000000,0.957539,-0.000000,27.705882,-15.426903,-36.033245
2642.660000,7.460000,4.710922,-0.243940,9.756202,0.000000,0.916981,-0.000000,28.043968,-15.426903,-35.770750
2642.670000,7.470000,4.607210,-0.218882,9.551303,0.000000,0.865280,0.000000,28.362031,-15.426903,-35.519092
2642.680000,7.480000,4.389775,-0.193110,9.380827,0.000000,0.818299,0.000000,28.658780,-15.426903,-35.280093
2642.690000,7.490000,4.047127,-0.166708,9.246586,0.000000,0.787779,0.000000,28.939518,-15.426903,-35.050178
2642.700000,7.500000,3.570758,-0.139762,9.150540,0.000000,0.770833,0.000000,29.211065,-15.426903,-34.824193
2642.710000,7.510000,2.947267,-0.112361,9.093769,0.000000,0.759075,0.000000,29.476419,-15.426903,-34.599875
2642.720000,7.520000,2.172637,-0.084593,9.076271,0.000000,0.757436,-0.000000,29.736366,-15.426903,-34.376725
2642.730000,7.530000,1.276573,-0.056549,9.097723,0.000000,0.789020,-0.000000,29.997166,-15.426903,-34.149388
2642.740000,7.540000,0.322716,-0.028321,9.157924,0.000000,0.875283,0.000000,30.275125,-15.426903,-33.903207
2642.750000,7.550000,-0.628709,0.000000,9.256612,0.000000,1.010690,0.000000,30.590354,-15.426903,-33.619056
2642.760000,7.560000,-1.562748,0.028321,9.393432,0.000000,1.164180,-0.000000,30.954218,-15.426903,-33.284337
2642.770000,7.570000,-2.505860,0.056549,9.567203,0.000000,1.312542,-0.000000,31.364782,-15.426903,-32.897737
2642.780000,7.580000,-3.467580,0.084593,9.773250,0.000000,1.469391,0.000000,31.817219,-15.426903,-32.460364
2642.790000,7.590000,-4.381176,0.112361,10.000452,0.000000,1.672513,0.000000,32.317927,-15.426903,-31.961888
2642.800000,7.600000,-5.109878,0.139762,10.231677,0.000000,1.939001,-0.000000,32.885075,-15.426903,-31.378058
2642.810000,7.610000,-5.527290,0.166708,10.449691,0.000000,2.236619,-0.000000,33.532877,-15.426903,-30.684799
2642.820000,7.620000,-5.607522,0.193110,10.643798,0.000000,2.503553,0.000000,34.255439,-15.426903,-29.876003
2642.830000,7.630000,-5.447805,0.218882,10.808645,0.000000,2.695477,0.000000,35.026781,-15.426903,-28.967832
2642.840000,7.640000,-5.205736,0.243940,10.936777,0.000000,2.811750,-0.000000,35.815679,-15.426903,-27.986565
2642.850000,7.650000,-5.005025,0.268202,11.015869,0.000000,2.880937,0.000000,36.599759,-15.426903,-26.953076
2642.860000,7.660000,-4.881866,0.291589,11.034123,0.000000,2.929115,0.000000,37.368108,-15.426903,-25.877310
2642.870000,7.670000,-4.800542,0.314026,10.986810,0.000000,2.962424,-0.000000,38.115252,-15.426903,-24.763648
2642.880000,7.680000,-4.709417,0.335438,10.877700,0.000000,2.971080,-0.000000,38.835038,-15.426903,-23.618859
2642.890000,7.690000,-4.585318,0.355756,10.715385,0.000000,2.942020,-0.000000,39.518807,-15.426903,-22.456059
2642.900000,7.700000,-4.434702,0.374913,10.508259,0.000000,2.869255,0.000000,40.156953,-15.426903,-21.293892
2642.910000,7.710000,-4.260181,0.392848,10.262087,0.000000,2.759234,0.000000,40.741851,-15.426903,-20.152227
2642.920000,7.720000,-4.030352,0.409501,9.981749,0.000000,2.628090,-0.000000,41.270456,-15.426903,-19.046263
2642.930000,7.730000,-3.689294,0.424819,9.675547,0.000000,2.487067,0.000000,41.744443,-15.426903,-17.983664
2642.940000,7.740000,-3.207404,0.438751,9.358255,0.000000,2.324459,-0.000000,42.166494,-15.426903,-16.970488
2642.950000,7.750000,-2.631069,0.451252,9.049364,0.000000,2.106032,0.000000,42.535153,-15.426903,-16.024088
2642.960000,7.760000,-2.076462,0.462280,8.766896,0.000000,1.804935,0.000000,42.843739,-15.426903,-15.179747
2642.970000,7.770000,-1.656495,0.471802,8.523084,0.000000,1.436541,-0.000000,43.085794,-15.426903,-14.478432
2642.980000,7.780000,-1.397807,0.479784,8.327162,0.000000,1.055006,-0.000000,43.262138,-15.426903,-13.942671
2642.990000,7.790000,-1.225753,0.486201,8.190350,0.000000,0.704624,-0.000000,43.381683,-15.426903,-13.566143
2643.000000,7.800000,-1.035598,0.491032,8.125582,0.000000,0.376546,-0.000000,43.454325,-15.426903,-13.331629
2643.010000,7.810000,-0.781156,0.494262,8.143451,0.000000,0.022597,0.000000,43.482618,-15.426903,-13.239056
2643.020000,7.820000,-0.492353,0.495879,8.250101,0.000000,-0.387177,0.000000,43.460345,-15.426903,-13.311989
2643.030000,7.830000,-0.210016,0.495879,8.449478,0.000000,-0.828624,-0.000000,43.378798,-15.426903,-13.575367
2643.040000,7.840000,0.081175,0.494262,8.746339,0.000000,-1.251110,-0.000000,43.233772,-15.426903,-14.030384
2643.050000,7.850000,0.438863,0.491032,9.144148,0.000000,-1.638300,-0.000000,43.025558,-15.426903,-14.656467
2643.060000,7.860000,0.881127,0.486201,9.639749,0.000000,-2.031524,-0.000000,42.750905,-15.426903,-15.439263
2643.070000,7.870000,1.334000,0.479784,10.222691,0.000000,-2.484675,0.000000,42.394666,-15.426903,-16.392161
2643.080000,7.880000,1.678491,0.471802,10.881694,0.000000,-2.998691,0.000000,41.931122,-15.426903,-17.543992
2643.090000,7.890000,1.854787,0.462280,11.611590,0.000000,-3.512621,0.000000,41.335760,-15.426903,-18.904116
2643.100000,7.900000,1.912658,0.451252,12.409440,0.000000,-3.965490,-0.000000,40.595897,-15.426903,-20.444653
2643.110000,7.910000,1.951935,0.438751,13.260431,0.000000,-4.358067,0.000000,39.707652,-15.426903,-22.120421
2643.120000,7.920000,2.014870,0.424819,14.131622,0.000000,-4.743762,0.000000,38.661398,-15.426903,-23.902029
2643.130000,7.930000,2.042187,0.409501,14.983637,0.000000,-5.162639,0.000000,37.432619,-15.426903,-25.783903
2643.140000,7.940000,1.933804,0.392848,15.788027,0.000000,-5.594923,-0.000000,35.990644,-15.426903,-27.761200
2643.150000,7.950000,1.646115,0.374913,16.531823,0.000000,-5.981640,-0.000000,34.317600,-15.426903,-29.804580
2643.160000,7.960000,1.228730,0.355756,17.205313,0.000000,-6.283144,0.000000,32.417886,-15.426903,-31.860498
2643.170000,7.970000,0.778146,0.335438,17.790945,0.000000,-6.510262,-0.000000,30.308710,-15.426903,-33.873187
2643.180000,7.980000,0.376829,0.314026,18.272984,0.000000,-6.700683,-0.000000,28.003483,-15.426903,-35.802452
2643.190000,7.990000,0.090798,0.291589,18.658431,0.000000,-6.873088,-0.000000,25.507273,-15.426903,-37.621665
2643.200000,8.000000,-0.001567,0.268202,18.970826,0.000000,-7.007818,0.000000,22.829078,-15.426903,-39.304502
2643.210000,8.010000,0.109973,0.243940,19.186452,0.000000,-7.071797,0.000000,19.996790,-15.426903,-40.818367
2643.220000,8.020000,0.063737,0.218882,19.142755,0.000000,-7.074595,-0.000000,17.055589,-15.426903,-42.132144
2643.230000,8.030000,-1.241465,0.193110,18.534864,0.000000,-7.126444,-0.000000,14.035626,-15.426903,-43.232070
2643.240000,8.040000,-5.540864,0.166708,17.139020,0.000000,-7.411114,0.000000,10.892571,-15.426903,-44.128931
2643.250000,8.050000,-14.103529,0.139762,15.260863,0.000000,-7.923826,0.000000,7.491095,-15.426903,-44.831843
2643.260000,8.060000,-25.926134,0.112361,13.943060,0.000000,-8.040867,-0.000000,3.784349,-15.426903,-45.295578
2643.270000,8.070000,-36.748993,0.084593,13.915075,0.000000,-6.554902,0.000000,0.207823,-15.426903,-45.452915
2643.280000,8.080000,-40.789280,0.056549,13.858916,0.000000,-2.814852,-0.000000,-2.174080,-15.426903,-45.401366
2643.290000,8.090000,-34.664810,0.028321,11.792302,0.000000,1.873023,-0.000000,-2.351109,-15.426903,-45.392543
2643.300000,8.100000,-20.196854,0.000000,8.821087,0.000000,4.736899,0.000000,-0.471661,-15.426903,-45.450943
2643.310000,8.110000,-4.156095,-0.028321,7.578847,0.000000,4.162238,-0.000000,1.955091,-15.426903,-45.411323
2643.320000,8.120000,5.889482,-0.056549,7.762211,0.000000,1.384426,0.000000,3.310509,-15.426903,-45.332673
2643.330000,8.130000,6.713317,-0.084593,7.754167,0.000000,-0.957119,0.000000,3.211754,-15.426903,-45.339776
2643.340000,8.140000,0.630789,-0.112361,7.580446,0.000000,-1.423829,-0.000000,2.442143,-15.426903,-45.387736
2643.350000,8.150000,-7.173863,-0.139762,7.697789,0.000000,-0.470117,-0.000000,1.919456,-15.426903,-45.412844
2643.360000,8.160000,-12.443114,-0.166708,7.926637,0.000000,0.786335,0.000000,2.015278,-15.426903,-45.408692
2643.370000,8.170000,-13.836672,-0.193110,8.086442,0.000000,1.695215,0.000000,2.633403,-15.426903,-45.377041
2643.380000,8.180000,-12.392288,-0.218882,8.257422,0.000000,2.189073,-0.000000,3.553458,-15.426903,-45.314276
2643.390000,8.190000,-9.876849,-0.243940,8.523672,0.000000,2.420407,-0.000000,4.617078,-15.426903,-45.218285
2643.400000,8.200000,-7.555585,-0.268202,8.864459,0.000000,2.520460,0.000000,5.742232,-15.426903,-45.089217
2643.410000,8.210000,-5.881114,-0.291589,9.219185,0.000000,2.560958,0.000000,6.889906,-15.426903,-44.928163
2643.420000,8.220000,-4.764048,-0.314026,9.549941,0.000000,2.579089,0.000000,8.043374,-15.426903,-44.736057
2643.430000,8.230000,-3.947601,-0.335438,9.852217,0.000000,2.585802,-0.000000,9.197444,-15.426903,-44.513118
2643.440000,8.240000,-3.247387,-0.355756,10.140171,0.000000,2.564269,-0.000000,10.345416,-15.426903,-44.260400
2643.450000,8.250000,-2.625028,-0.374913,10.430671,0.000000,2.486050,0.000000,11.467470,-15.426903,-43.983040
2643.460000,8.260000,-2.141211,-0.392848,10.733147,0.000000,2.343356,0.000000,12.532620,-15.426903,-43.691465
2643.470000,8.270000,-1.856250,-0.409501,11.047400,0.000000,2.166390,0.000000,13.515668,-15.426903,-43.397435
2643.480000,8.280000,-1.754895,-0.424819,11.368547,0.000000,2.003316,-0.000000,14.413468,-15.426903,-43.107570
2643.490000,8.290000,-1.746532,-0.438751,11.692728,0.000000,1.880456,-0.000000,15.243247,-15.426903,-42.821188
2643.500000,8.300000,-1.729098,-0.451252,12.018338,0.000000,1.784380,0.000000,16.024226,-15.426903,-42.535101
2643.510000,8.310000,-1.653553,-0.462280,12.343434,0.000000,1.683809,0.000000,16.761482,-15.426903,-42.250010
2643.520000,8.320000,-1.533497,-0.471802,12.662526,0.000000,1.565485,-0.000000,17.447356,-15.426903,-41.971424
2643.530000,8.330000,-1.402073,-0.479784,12.965906,0.000000,1.445391,-0.000000,18.075940,-15.426903,-41.704569
2643.540000,8.340000,-1.266115,-0.486201,13.242358,0.000000,1.347554,0.000000,18.653242,-15.426903,-41.449575
2643.550000,8.350000,-1.101100,-0.491032,13.482534,0.000000,1.278517,0.000000,19.193256,-15.426903,-41.202301
2643.560000,8.360000,-0.884245,-0.494262,13.680238,0.000000,1.224605,0.000000,19.706936,-15.426903,-40.959093
2643.570000,8.370000,-0.627151,-0.495879,13.831485,0.000000,1.169098,-0.000000,20.196555,-15.426903,-40.719895
2643.580000,8.380000,-0.374680,-0.495879,13.932934,0.000000,1.107779,-0.000000,20.659188,-15.426903,-40.487142
2643.590000,8.390000,-0.170745,-0.494262,13.981369,0.000000,1.050490,-0.000000,21.093716,-15.426903,-40.262462
2643.600000,8.400000,-0.019908,-0.491032,13.974415,0.000000,1.013154,0.000000,21.505209,-15.426903,-40.044184
2643.610000,8.410000,0.124442,-0.486201,13.911487,0.000000,1.008549,-0.000000,21.905185,-15.426903,-39.826794
2643.620000,8.420000,0.335370,-0.479784,13.794284,0.000000,1.038283,-0.000000,22.308523,-15.426903,-39.602279
2643.630000,8.430000,0.667623,-0.471802,13.626872,0.000000,1.088146,0.000000,22.727447,-15.426903,-39.363356
2643.640000,8.440000,1.124024,-0.462280,13.415129,0.000000,1.133615,0.000000,23.165050,-15.426903,-39.107430
2643.650000,8.450000,1.656614,-0.451252,13.165330,0.000000,1.156223,0.000000,23.614006,-15.426903,-38.837989
2643.660000,8.460000,2.199991,-0.438751,12.882950,0.000000,1.156707,0.000000,24.063134,-15.426903,-38.561331
2643.670000,8.470000,2.709012,-0.424819,12.573231,0.000000,1.150122,-0.000000,24.506110,-15.426903,-38.281343
2643.680000,8.480000,3.171111,-0.409501,12.242793,0.000000,1.147496,-0.000000,24.943715,-15.426903,-37.997655
2643.690000,8.490000,3.588542,-0.392848,11.900036,0.000000,1.144022,-0.000000,25.378153,-15.426903,-37.708885
2643.700000,8.500000,3.954527,-0.374913,11.553663,0.000000,1.126275,0.000000,25.806532,-15.426903,-37.417023
2643.710000,8.510000,4.250032,-0.355756,11.210978,0.000000,1.089559,0.000000,26.221072,-15.426903,-37.127699
2643.720000,8.520000,4.462105,-0.335438,10.877818,0.000000,1.045195,-0.000000,26.615717,-15.426903,-36.845818
2643.730000,8.530000,4.599365,-0.314026,10.559886,0.000000,1.009014,0.000000,26.991414,-15.426903,-36.571495
2643.740000,8.540000,4.683811,-0.291589,10.263423,0.000000,0.984003,-0.000000,27.353819,-15.426903,-36.301229
2643.750000,8.550000,4.726109,-0.268202,9.994221,0.000000,0.957539,-0.000000,27.705882,-15.426903,-36.033245
2643.760000,8.560000,4.710922,-0.243940,9.756202,0.000000,0.916981,-0.000000,28.043968,-15.426903,-35.770750
2643.770000,8.570000,4.607210,-0.218882,9.551303,0.000000,0.865280,0.000000,28.362031,-15.426903,-35.519092
2643.780000,8.580000,4.389775,-0.193110,9.380827,0.000000,0.818299,0.000000,28.658780,-15.426903,-35.280093
2643.790000,8.590000,4.047127,-0.166708,9.246586,0.000000,0.787779,0.000000,28.939518,-15.426903,-35.050178
2643.800000,8.600000,3.570758,-0.139762,9.150540,0.000000,0.770833,0.000000,29.211065,-15.426903,-34.824193
2643.810000,8.610000,2.947267,-0.112361,9.093769,0.000000,0.759075,0.000000,29.476419,-15.426903,-34.599875
2643.820000,8.620000,2.172637,-0.084593,9.076271,0.000000,0.757436,-0.000000,29.736366,-15.426903,-34.376725
2643.830000,8.630000,1.276573,-0.056549,9.097723,0.000000,0.789020,-0.000000,29.997166,-15.426903,-34.149388
2643.840000,8.640000,0.322716,-0.028321,9.157924,0.000000,0.875283,0.000000,30.275125,-15.426903,-33.903207
2643.850000,8.650000,-0.628709,0.000000,9.256612,0.000000,1.010690,0.000000,30.590354,-15.426903,-33.619056
2643.860000,8.660000,-1.562748,0.028321,9.393432,0.000000,1.164180,-0.000000,30.954218,-15.426903,-33.284337
2643.870000,8.670000,-2.505860,0.056549,9.567203,0.000000,1.312542,-0.000000,31.364782,-15.426903,-32.897737
2643.880000,8.680000,-3.467580,0.084593,9.773250,0.000000,1.469391,0.000000,31.817219,-15.426903,-32.460364
2643.890000,8.690000,-4.381176,0.112361,10.000452,0.000000,1.672513,0.000000,32.317927,-15.426903,-31.961888
2643.900000,8.700000,-5.109878,0.139762,10.231677,0.000000,1.939001,-0.000000,32.885075,-15.426903,-31.378058
2643.910000,8.710000,-5.527290,0.166708,10.449691,0.000000,2.236619,-0.000000,33.532877,-15.426903,-30.684799
2643.920000,8.720000,-5.607522,0.193110,10.643798,0.000000,2.503553,-0.000000,34.255439,-15.426903,-29.876003
2643.930000,8.730000,-5.447805,0.218882,10.808645,0.000000,2.695477,-0.000000,35.026781,-15.426903,-28.967832
2643.940000,8.740000,-5.205736,0.243940,10.936777,0.000000,2.811750,0.000000,35.815679,-15.426903,-27.986565
2643.950000,8.750000,-5.005025,0.268202,11.015869,0.000000,2.880937,0.000000,36.599759,-15.426903,-26.953076
2643.960000,8.760000,-4.881866,0.291589,11.034123,0.000000,2.929115,-0.000000,37.368108,-15.426903,-25.877310
2643.970000,8.770000,-4.800542,0.314026,10.986810,0.000000,2.962424,-0.000000,38.115252,-15.426903,-24.763648
2643.980000,8.780000,-4.709417,0.335438,10.877700,0.000000,2.971080,-0.000000,38.835038,-15.426903,-23.618859
2643.990000,8.790000,-4.585318,0.355756,10.715385,0.000000,2.942020,0.000000,39.518807,-15.426903,-22.456059
2644.000000,8.800000,-4.434702,0.374913,10.508259,0.000000,2.869255,-0.000000,40.156953,-15.426903,-21.293892
2644.010000,8.810000,-4.260181,0.392848,10.262087,0.000000,2.759234,-0.000000,40.741851,-15.426903,-20.152227
2644.020000,8.820000,-4.030352,0.409501,9.981749,0.000000,2.628090,0.000000,41.270456,-15.426903,-19.046263
2644.030000,8.830000,-3.689294,0.424819,9.675547,0.000000,2.487067,0.000000,41.744443,-15.426903,-17.983664
2644.040000,8.840000,-3.207404,0.438751,9.358255,0.000000,2.324459,-0.000000,42.166494,-15.426903,-16.970488
2644.050000,8.850000,-2.631069,0.451252,9.049364,0.000000,2.106032,-0.000000,42.535153,-15.426903,-16.024088
2644.060000,8.860000,-2.076462,0.462280,8.766896,0.000000,1.804935,0.000000,42.843739,-15.426903,-15.179747
2644.070000,8.870000,-1.656495,0.471802,8.523084,0.000000,1.436541,-0.000000,43.085794,-15.426903,-14.478432
2644.080000,8.880000,-1.397807,0.479784,8.327162,0.000000,1.055006,-0.000000,43.262138,-15.426903,-13.942671
2644.090000,8.890000,-1.225753,0.486201,8.190350,0.000000,0.704624,0.000000,43.381683,-15.426903,-13.566143
2644.100000,8.900000,-1.035598,0.491032,8.125582,0.000000,0.376546,0.000000,43.454325,-15.426903,-13.331629
2644.110000,8.910000,-0.781156,0.494262,8.143451,0.000000,0.022597,0.000000,43.482618,-15.426903,-13.239056
2644.120000,8.920000,-0.492353,0.495879,8.250101,0.000000,-0.387177,0.000000,43.460345,-15.426903,-13.311989
2644.130000,8.930000,-0.210016,0.495879,8.449478,0.000000,-0.828624,0.000000,43.378798,-15.426903,-13.575367
2644.140000,8.940000,0.081175,0.494262,8.746339,0.000000,-1.251110,-0.000000,43.233772,-15.426903,-14.030384
2644.150000,8.950000,0.438863,0.491032,9.144148,0.000000,-1.638300,-0.000000,43.025558,-15.426903,-14.656467
2644.160000,8.960000,0.881127,0.486201,9.639749,0.000000,-2.031524,0.000000,42.750905,-15.426903,-15.439263
2644.170000,8.970000,1.334000,0.479784,10.222691,0.000000,-2.484675,0.000000,42.394666,-15.426903,-16.392161
2644.180000,8.980000,1.678491,0.471802,10.881694,0.000000,-2.998691,0.000000,41.931122,-15.426903,-17.543992
2644.190000,8.990000,1.854787,0.462280,11.611590,0.000000,-3.512621,0.000000,41.335760,-15.426903,-18.904116
2644.200000,9.000000,1.912658,0.451252,12.409440,0.000000,-3.965490,0.000000,40.595897,-15.426903,-20.444653
2644.210000,9.010000,1.951935,0.438751,13.260431,0.000000,-4.358067,0.000000,39.707652,-15.426903,-22.120421
2644.220000,9.020000,2.014870,0.424819,14.131622,0.000000,-4.743762,0.000000,38.661398,-15.426903,-23.902029
2644.230000,9.030000,2.042187,0.409501,14.983637,0.000000,-5.162639,-0.000000,37.432619,-15.426903,-25.783903
2644.240000,9.040000,1.933804,0.392848,15.788027,0.000000,-5.594923,0.000000,35.990644,-15.426903,-27.761200
2644.250000,9.050000,1.646115,0.374913,16.531823,0.000000,-5.981640,0.000000,34.317600,-15.426903,-29.804580
2644.260000,9.060000,1.228730,0.355756,17.205313,0.000000,-6.283144,-0.000000,32.417886,-15.426903,-31.860498
2644.270000,9.070000,0.778146,0.335438,17.790945,0.000000,-6.510262,0.000000,30.308710,-15.426903,-33.873187
2644.280000,9.080000,0.376829,0.314026,18.272984,0.000000,-6.700683,0.000000,28.003483,-15.426903,-35.802452
2644.290000,9.090000,0.090798,0.291589,18.658431,0.000000,-6.873088,-0.000000,25.507273,-15.426903,-37.621665
2644.300000,9.100000,-0.001567,0.268202,18.970826,0.000000,-7.007818,0.000000,22.829078,-15.426903,-39.304502
2644.310000,9.110000,0.109973,0.243940,19.186452,0.000000,-7.071797,0.000000,19.996790,-15.426903,-40.818367
2644.320000,9.120000,0.063737,0.218882,19.142755,0.000000,-7.074595,-0.000000,17.055589,-15.426903,-42.132144
2644.330000,9.130000,-1.241465,0.193110,18.534864,0.000000,-7.126444,-0.000000,14.035626,-15.426903,-43.232070
2644.340000,9.140000,-5.540864,0.166708,17.139020,0.000000,-7.411114,0.000000,10.892571,-15.426903,-44.128931
2644.350000,9.150000,-14.103529,0.139762,15.260863,0.000000,-7.923826,0.000000,7.491095,-15.426903,-44.831843
2644.360000,9.160000,-25.926134,0.112361,13.943060,0.000000,-8.040867,0.000000,3.784349,-15.426903,-45.295578
2644.370000,9.170000,-36.748993,0.084593,13.915075,0.000000,-6.554902,0.000000,0.207823,-15.426903,-45.452915
2644.380000,9.180000,-40.789280,0.056549,13.858916,0.000000,-2.814852,-0.000000,-2.174080,-15.426903,-45.401366
2644.390000,9.190000,-34.664810,0.028321,11.792302,0.000000,1.873023,0.000000,-2.351109,-15.426903,-45.392543
2644.400000,9.200000,-20.196854,0.000000,8.821087,0.000000,4.736899,-0.000000,-0.471661,-15.426903,-45.450943
2644.410000,9.210000,-4.156095,-0.028321,7.578847,0.000000,4.162238,-0.000000,1.955091,-15.426903,-45.411323
2644.420000,9.220000,5.889482,-0.056549,7.762211,0.000000,1.384426,0.000000,3.310509,-15.426903,-45.332673
2644.430000,9.230000,6.713317,-0.084593,7.754167,0.000000,-0.957119,0.000000,3.211754,-15.426903,-45.339776
2644.440000,9.240000,0.630789,-0.112361,7.580446,0.000000,-1.423829,-0.000000,2.442143,-15.426903,-45.387736
2644.450000,9.250000,-7.173863,-0.139762,7.697789,0.000000,-0.470117,0.000000,1.919456,-15.426903,-45.412844
2644.460000,9.260000,-12.443114,-0.166708,7.926637,0.000000,0.786335,0.000000,2.015278,-15.426903,-45.408692
2644.470000,9.270000,-13.836672,-0.193110,8.086442,0.000000,1.695215,-0.000000,2.633403,-15.426903,-45.377041
2644.480000,9.280000,-12.392288,-0.218882,8.257422,0.000000,2.189073,0.000000,3.553458,-15.426903,-45.314276
2644.490000,9.290000,-9.876849,-0.243940,8.523672,0.000000,2.420407,-0.000000,4.617078,-15.426903,-45.218285
2644.500000,9.300000,-7.555585,-0.268202,8.864459,0.000000,2.520460,0.000000,5.742232,-15.426903,-45.089217
2644.510000,9.310000,-5.881114,-0.291589,9.219185,0.000000,2.560958,0.000000,6.889906,-15.426903,-44.928163
2644.520000,9.320000,-4.764048,-0.314026,9.549941,0.000000,2.579089,-0.000000,8.043374,-15.426903,-44.736057
2644.530000,9.330000,-3.947601,-0.335438,9.852217,0.000000,2.585802,-0.000000,9.197444,-15.426903,-44.513118
2644.540000,9.340000,-3.247387,-0.355756,10.140171,0.000000,2.564269,-0.000000,10.345416,-15.426903,-44.260400
2644.550000,9.350000,-2.625028,-0.374913,10.430671,0.000000,2.486050,-0.000000,11.467470,-15.426903,-43.983040
2644.560000,9.360000,-2.141211,-0.392848,10.733147,0.000000,2.343356,-0.000000,12.532620,-15.426903,-43.691465
2644.570000,9.370000,-1.856250,-0.409501,11.047400,0.000000,2.166390,-0.000000,13.515668,-15.426903,-43.397435
2644.580000,9.380000,-1.754895,-0.424819,11.368547,0.000000,2.003316,0.000000,14.413468,-15.426903,-43.107570
2644.590000,9.390000,-1.746532,-0.438751,11.692728,0.000000,1.880456,0.000000,15.243247,-15.426903,-42.821188
2644.600000,9.400000,-1.729098,-0.451252,12.018338,0.000000,1.784380,0.000000,16.024226,-15.426903,-42.535101
2644.610000,9.410000,-1.653553,-0.462280,12.343434,0.000000,1.683809,0.000000,16.761482,-15.426903,-42.250010
2644.620000,9.420000,-1.533497,-0.471802,12.662526,0.000000,1.565485,-0.000000,17.447356,-15.426903,-41.971424
2644.630000,9.430000,-1.402073,-0.479784,12.965906,0.000000,1.445391,-0.000000,18.075940,-15.426903,-41.704569
2644.640000,9.440000,-1.266115,-0.486201,13.242358,0.000000,1.347554,0.000000,18.653242,-15.426903,-41.449575
2644.650000,9.450000,-1.101100,-0.491032,13.482534,0.000000,1.278517,0.000000,19.193256,-15.426903,-41.202301
2644.660000,9.460000,-0.884245,-0.494262,13.680238,0.000000,1.224605,0.000000,19.706936,-15.426903,-40.959093
2644.670000,9.470000,-0.627151,-0.495879,13.831485,0.000000,1.169098,0.000000,20.196555,-15.426903,-40.719895
2644.680000,9.480000,-0.374680,-0.495879,13.932934,0.000000,1.107779,-0.000000,20.659188,-15.426903,-40.487142
2644.690000,9.490000,-0.170745,-0.494262,13.981369,0.000000,1.050490,-0.000000,21.093716,-15.426903,-40.262462
2644.700000,9.500000,-0.019908,-0.491032,13.974415,0.000000,1.013154,0.000000,21.505209,-15.426903,-40.044184
2644.710000,9.510000,0.124442,-0.486201,13.911487,0.000000,1.008549,0.000000,21.905185,-15.426903,-39.826794
2644.720000,9.520000,0.335370,-0.479784,13.794284,0.000000,1.038283,-0.000000,22.308523,-15.426903,-39.602279
2644.730000,9.530000,0.667623,-0.471802,13.626872,0.000000,1.088146,0.000000,22.727447,-15.426903,-39.363356
2644.740000,9.540000,1.124024,-0.462280,13.415129,0.000000,1.133615,0.000000,23.165050,-15.426903,-39.107430
2644.750000,9.550000,1.656614,-0.451252,13.165330,0.000000,1.156223,-0.000000,23.614006,-15.426903,-38.837989
2644.760000,9.560000,2.199991,-0.438751,12.882950,0.000000,1.156707,0.000000,24.063134,-15.426903,-38.561331
2644.770000,9.570000,2.709012,-0.424819,12.573231,0.000000,1.150122,-0.000000,24.506110,-15.426903,-38.281343
2644.780000,9.580000,3.171111,-0.409501,12.242793,0.000000,1.147496,-0.000000,24.943715,-15.426903,-37.997655
2644.790000,9.590000,3.588542,-0.392848,11.900036,0.000000,1.144022,0.000000,25.378153,-15.426903,-37.708885
2644.800000,9.600000,3.954527,-0.374913,11.553663,0.000000,1.126275,0.000000,25.806532,-15.426903,-37.417023
2644.810000,9.610000,4.250032,-0.355756,11.210978,0.000000,1.089559,-0.000000,26.221072,-15.426903,-37.127699
2644.820000,9.620000,4.462105,-0.335438,10.877818,0.000000,1.045195,-0.000000,26.615717,-15.426903,-36.845818
2644.830000,9.630000,4.599365,-0.314026,10.559886,0.000000,1.009014,0.000000,26.991414,-15.426903,-36.571495
2644.840000,9.640000,4.683811,-0.291589,10.263423,0.000000,0.984003,-0.000000,27.353819,-15.426903,-36.301229
2644.850000,9.650000,4.726109,-0.268202,9.994221,0.000000,0.957539,-0.000000,27.705882,-15.426903,-36.033245
2644.860000,9.660000,4.710922,-0.243940,9.756202,0.000000,0.916981,-0.000000,28.043968,-15.426903,-35.770750
2644.870000,9.670000,4.607210,-0.218882,9.551303,0.000000,0.865280,0.000000,28.362031,-15.426903,-35.519092
2644.880000,9.680000,4.389775,-0.193110,9.380827,0.000000,0.818299,0.000000,28.658780,-15.426903,-35.280093
2644.890000,9.690000,4.047127,-0.166708,9.246586,0.000000,0.787779,0.000000,28.939518,-15.426903,-35.050178
2644.900000,9.700000,3.570758,-0.139762,9.150540,0.000000,0.770833,0.000000,29.211065,-15.426903,-34.824193
2644.910000,9.710000,2.947267,-0.112361,9.093769,0.000000,0.759075,0.000000,29.476419,-15.426903,-34.599875
2644.920000,9.720000,2.172637,-0.084593,9.076271,0.000000,0.757436,-0.000000,29.736366,-15.426903,-34.376725
2644.930000,9.730000,1.276573,-0.056549,9.097723,0.000000,0.789020,-0.000000,29.997166,-15.426903,-34.149388
2644.940000,9.740000,0.322716,-0.028321,9.157924,0.000000,0.875283,-0.000000,30.275125,-15.426903,-33.903207
2644.950000,9.750000,-0.628709,0.000000,9.256612,0.000000,1.010690,0.000000,30.590354,-15.426903,-33.619056
2644.960000,9.760000,-1.562748,0.028321,9.393432,0.000000,1.164180,0.000000,30.954218,-15.426903,-33.284337
2644.970000,9.770000,-2.505860,0.056549,9.567203,0.000000,1.312542,-0.000000,31.364782,-15.426903,-32.897737
2644.980000,9.780000,-3.467580,0.084593,9.773250,0.000000,1.469391,0.000000,31.817219,-15.426903,-32.460364
2644.990000,9.790000,-4.381176,0.112361,10.000452,0.000000,1.672513,0.000000,32.317927,-15.426903,-31.961888
2645.000000,9.800000,-5.109878,0.139762,10.231677,0.000000,1.939001,-0.000000,32.885075,-15.426903,-31.378058
2645.010000,9.810000,-5.527290,0.166708,10.449691,0.000000,2.236619,-0.000000,33.532877,-15.426903,-30.684799
2645.020000,9.820000,-5.607522,0.193110,10.643798,0.000000,2.503553,-0.000000,34.255439,-15.426903,-29.876003
2645.030000,9.830000,-5.447805,0.218882,10.808645,0.000000,2.695477,0.000000,35.026781,-15.426903,-28.967832
2645.040000,9.840000,-5.205736,0.243940,10.936777,0.000000,2.811750,0.000000,35.815679,-15.426903,-27.986565
2645.050000,9.850000,-5.005025,0.268202,11.015869,0.000000,2.880937,-0.000000,36.599759,-15.426903,-26.953076
2645.060000,9.860000,-4.881866,0.291589,11.034123,0.000000,2.929115,0.000000,37.368108,-15.426903,-25.877310
2645.070000,9.870000,-4.800542,0.314026,10.986810,0.000000,2.962424,0.000000,38.115252,-15.426903,-24.763648
2645.080000,9.880000,-4.709417,0.335438,10.877700,0.000000,2.971080,-0.000000,38.835038,-15.426903,-23.618859
2645.090000,9.890000,-4.585318,0.355756,10.715385,0.000000,2.942020,-0.000000,39.518807,-15.426903,-22.456059
2645.100000,9.900000,-4.434702,0.374913,10.508259,0.000000,2.869255,0.000000,40.156953,-15.426903,-21.293892
2645.110000,9.910000,-4.260181,0.392848,10.262087,0.000000,2.759234,-0.000000,40.741851,-15.426903,-20.152227
2645.120000,9.920000,-4.030352,0.409501,9.981749,0.000000,2.628090,0.000000,41.270456,-15.426903,-19.046263
2645.130000,9.930000,-3.689294,0.424819,9.675547,0.000000,2.487067,0.000000,41.744443,-15.426903,-17.983664
2645.140000,9.940000,-3.207404,0.438751,9.358255,0.000000,2.324459,-0.000000,42.166494,-15.426903,-16.970488
2645.150000,9.950000,-2.631069,0.451252,9.049364,0.000000,2.106032,0.000000,42.535153,-15.426903,-16.024088
2645.160000,9.960000,-2.076462,0.462280,8.766896,0.000000,1.804935,0.000000,42.843739,-15.426903,-15.179747
2645.170000,9.970000,-1.656495,0.471802,8.523084,0.000000,1.436541,0.000000,43.085794,-15.426903,-14.478432
2645.180000,9.980000,-1.397807,0.479784,8.327162,0.000000,1.055006,0.000000,43.262138,-15.426903,-13.942671
2645.190000,9.990000,-1.225753,0.486201,8.190350,0.000000,0.704624,-0.000000,43.381683,-15.426903,-13.566143
2645.200000,10.000000,-1.035598,0.491032,8.125582,0.000000,0.376546,-0.000000,43.454325,-15.426903,-13.331629
2645.210000,10.010000,-0.781156,0.494262,8.143451,0.000000,0.022597,-0.000000,43.482618,-15.426903,-13.239056
2645.220000,10.020000,-0.492353,0.495879,8.250101,0.000000,-0.387177,0.000000,43.460345,-15.426903,-13.311989
2645.230000,10.030000,-0.210016,0.495879,8.449478,0.000000,-0.828624,0.000000,43.378798,-15.426903,-13.575367
2645.240000,10.040000,0.081175,0.494262,8.746339,0.000000,-1.251110,-0.000000,43.233772,-15.426903,-14.030384
2645.250000,10.050000,0.438863,0.491032,9.144148,0.000000,-1.638300,0.000000,43.025558,-15.426903,-14.656467
2645.260000,10.060000,0.881127,0.486201,9.639749,0.000000,-2.031524,0.000000,42.750905,-15.426903,-15.439263
2645.270000,10.070000,1.334000,0.479784,10.222691,0.000000,-2.484675,-0.000000,42.394666,-15.426903,-16.392161
2645.280000,10.080000,1.678491,0.471802,10.881694,0.000000,-2.998691,-0.000000,41.931122,-15.426903,-17.543992
2645.290000,10.090000,1.854787,0.462280,11.611590,0.000000,-3.512621,-0.000000,41.335760,-15.426903,-18.904116
2645.300000,10.100000,1.912658,0.451252,12.409440,0.000000,-3.965490,0.000000,40.595897,-15.426903,-20.444653
2645.310000,10.110000,1.951935,0.438751,13.260431,0.000000,-4.358067,-0.000000,39.707652,-15.426903,-22.120421
2645.320000,10.120000,2.014870,0.424819,14.131622,0.000000,-4.743762,0.000000,38.661398,-15.426903,-23.902029
2645.330000,10.130000,2.042187,0.409501,14.983637,0.000000,-5.162639,0.000000,37.432619,-15.426903,-25.783903
2645.340000,10.140000,1.933804,0.392848,15.788027,0.000000,-5.594923,0.000000,35.990644,-15.426903,-27.761200
2645.350000,10.150000,1.646115,0.374913,16.531823,0.000000,-5.981640,-0.000000,34.317600,-15.426903,-29.804580
2645.360000,10.160000,1.228730,0.355756,17.205313,0.000000,-6.283144,-0.000000,32.417886,-15.426903,-31.860498
2645.370000,10.170000,0.778146,0.335438,17.790945,0.000000,-6.510262,0.000000,30.308710,-15.426903,-33.873187
2645.380000,10.180000,0.376829,0.314026,18.272984,0.000000,-6.700683,0.000000,28.003483,-15.426903,-35.802452
2645.390000,10.190000,0.090798,0.291589,18.658431,0.000000,-6.873088,-0.000000,25.507273,-15.426903,-37.621665
2645.400000,10.200000,-0.001567,0.268202,18.970826,0.000000,-7.007818,-0.000000,22.829078,-15.426903,-39.304502
2645.410000,10.210000,0.109973,0.243940,19.186452,0.000000,-7.071797,0.000000,19.996790,-15.426903,-40.818367
2645.420000,10.220000,0.063737,0.218882,19.142755,0.000000,-7.074595,-0.000000,17.055589,-15.426903,-42.132144
2645.430000,10.230000,-1.241465,0.193110,18.534864,0.000000,-7.126444,-0.000000,14.035626,-15.426903,-43.232070
2645.440000,10.240000,-5.540864,0.166708,17.139020,0.000000,-7.411114,0.000000,10.892571,-15.426903,-44.128931
2645.450000,10.250000,-14.103529,0.139762,15.260863,0.000000,-7.923826,-0.000000,7.491095,-15.426903,-44.831843
2645.460000,10.260000,-25.926134,0.112361,13.943060,0.000000,-8.040867,-0.000000,3.784349,-15.426903,-45.295578
2645.470000,10.270000,-36.748993,0.084593,13.915075,0.000000,-6.554902,-0.000000,0.207823,-15.426903,-45.452915
2645.480000,10.280000,-40.789280,0.056549,13.858916,0.000000,-2.814852,0.000000,-2.174080,-15.426903,-45.401366
2645.490000,10.290000,-34.664810,0.028321,11.792302,0.000000,1.873023,0.000000,-2.351109,-15.426903,-45.392543
2645.500000,10.300000,-20.196854,-0.000000,8.821087,0.000000,4.736899,-0.000000,-0.471661,-15.426903,-45.450943
2645.510000,10.310000,-4.156095,-0.028321,7.578847,0.000000,4.162238,-0.000000,1.955091,-15.426903,-45.411323
2645.520000,10.320000,5.889482,-0.056549,7.762211,0.000000,1.384426,0.000000,3.310509,-15.426903,-45.332673
2645.530000,10.330000,6.713317,-0.084593,7.754167,0.000000,-0.957119,0.000000,3.211754,-15.426903,-45.339776
2645.540000,10.340000,0.630789,-0.112361,7.580446,0.000000,-1.423829,0.000000,2.442143,-15.426903,-45.387736
2645.550000,10.350000,-7.173863,-0.139762,7.697789,0.000000,-0.470117,0.000000,1.919456,-15.426903,-45.412844
2645.560000,10.360000,-12.443114,-0.166708,7.926637,0.000000,0.786335,-0.000000,2.015278,-15.426903,-45.408692
2645.570000,10.370000,-13.836672,-0.193110,8.086442,0.000000,1.695215,-0.000000,2.633403,-15.426903,-45.377041
2645.580000,10.380000,-12.392288,-0.218882,8.257422,0.000000,2.189073,-0.000000,3.553458,-15.426903,-45.314276
2645.590000,10.390000,-9.876849,-0.243940,8.523672,0.000000,2.420407,-0.000000,4.617078,-15.426903,-45.218285
2645.600000,10.400000,-7.555585,-0.268202,8.864459,0.000000,2.520460,0.000000,5.742232,-15.426903,-45.089217
2645.610000,10.410000,-5.881114,-0.291589,9.219185,0.000000,2.560958,0.000000,6.889906,-15.426903,-44.928163
2645.620000,10.420000,-4.764048,-0.314026,9.549941,0.000000,2.579089,0.000000,8.043374,-15.426903,-44.736057
2645.630000,10.430000,-3.947601,-0.335438,9.852217,0.000000,2.585802,-0.000000,9.197444,-15.426903,-44.513118
2645.640000,10.440000,-3.247387,-0.355756,10.140171,0.000000,2.564269,-0.000000,10.345416,-15.426903,-44.260400
2645.650000,10.450000,-2.625028,-0.374913,10.430671,0.000000,2.486050,0.000000,11.467470,-15.426903,-43.983040
2645.660000,10.460000,-2.141211,-0.392848,10.733147,0.000000,2.343356,0.000000,12.532620,-15.426903,-43.691465
2645.670000,10.470000,-1.856250,-0.409501,11.047400,0.000000,2.166390,-0.000000,13.515668,-15.426903,-43.397435
2645.680000,10.480000,-1.754895,-0.424819,11.368547,0.000000,2.003316,-0.000000,14.413468,-15.426903,-43.107570
2645.690000,10.490000,-1.746532,-0.438751,11.692728,0.000000,1.880456,0.000000,15.243247,-15.426903,-42.821188
2645.700000,10.500000,-1.729098,-0.451252,12.018338,0.000000,1.784380,0.000000,16.024226,-15.426903,-42.535101
2645.710000,10.510000,-1.653553,-0.462280,12.343434,0.000000,1.683809,0.000000,16.761482,-15.426903,-42.250010
2645.720000,10.520000,-1.533497,-0.471802,12.662526,0.000000,1.565485,-0.000000,17.447356,-15.426903,-41.971424
2645.730000,10.530000,-1.402073,-0.479784,12.965906,0.000000,1.445391,-0.000000,18.075940,-15.426903,-41.704569
2645.740000,10.540000,-1.266115,-0.486201,13.242358,0.000000,1.347554,0.000000,18.653242,-15.426903,-41.449575
2645.750000,10.550000,-1.101100,-0.491032,13.482534,0.000000,1.278517,0.000000,19.193256,-15.426903,-41.202301
2645.760000,10.560000,-0.884245,-0.494262,13.680238,0.000000,1.224605,0.000000,19.706936,-15.426903,-40.959093
2645.770000,10.570000,-0.627151,-0.495879,13.831485,0.000000,1.169098,0.000000,20.196555,-15.426903,-40.719895
2645.780000,10.580000,-0.374680,-0.495879,13.932934,0.000000,1.107779,0.000000,20.659188,-15.426903,-40.487142
2645.790000,10.590000,-0.170745,-0.494262,13.981369,0.000000,1.050490,-0.000000,21.093716,-15.426903,-40.262462
2645.800000,10.600000,-0.019908,-0.491032,13.974415,0.000000,1.013154,0.000000,21.505209,-15.426903,-40.044184
2645.810000,10.610000,0.124442,-0.486201,13.911487,0.000000,1.008549,0.000000,21.905185,-15.426903,-39.826794
2645.820000,10.620000,0.335370,-0.479784,13.794284,0.000000,1.038283,-0.000000,22.308523,-15.426903,-39.602279
2645.830000,10.630000,0.667623,-0.471802,13.626872,0.000000,1.088146,0.000000,22.727447,-15.426903,-39.363356
2645.840000,10.640000,1.124024,-0.462280,13.415129,0.000000,1.133615,0.000000,23.165050,-15.426903,-39.107430
2645.850000,10.650000,1.656614,-0.451252,13.165330,0.000000,1.156223,-0.000000,23.614006,-15.426903,-38.837989
2645.860000,10.660000,2.199991,-0.438751,12.882950,0.000000,1.156707,0.000000,24.063134,-15.426903,-38.561331
2645.870000,10.670000,2.709012,-0.424819,12.573231,0.000000,1.150122,-0.000000,24.506110,-15.426903,-38.281343
2645.880000,10.680000,3.171111,-0.409501,12.242793,0.000000,1.147496,-0.000000,24.943715,-15.426903,-37.997655
2645.890000,10.690000,3.588542,-0.392848,11.900036,0.000000,1.144022,-0.000000,25.378153,-15.426903,-37.708885
2645.900000,10.700000,3.954527,-0.374913,11.553663,0.000000,1.126275,0.000000,25.806532,-15.426903,-37.417023
2645.910000,10.710000,4.250032,-0.355756,11.210978,0.000000,1.089559,0.000000,26.221072,-15.426903,-37.127699
2645.920000,10.720000,4.462105,-0.335438,10.877818,0.000000,1.045195,-0.000000,26.615717,-15.426903,-36.845818
2645.930000,10.730000,4.599365,-0.314026,10.559886,0.000000,1.009014,0.000000,26.991414,-15.426903,-36.571495
2645.940000,10.740000,4.683811,-0.291589,10.263423,0.000000,0.984003,-0.000000,27.353819,-15.426903,-36.301229
2645.950000,10.750000,4.726109,-0.268202,9.994221,0.000000,0.957539,-0.000000,27.705882,-15.426903,-36.033245
2645.960000,10.760000,4.710922,-0.243940,9.756202,0.000000,0.916981,0.000000,28.043968,-15.426903,-35.770750
2645.970000,10.770000,4.607210,-0.218882,9.551303,0.000000,0.865280,0.000000,28.362031,-15.426903,-35.519092
2645.980000,10.780000,4.389775,-0.193110,9.380827,0.000000,0.818299,-0.000000,28.658780,-15.426903,-35.280093
2645.990000,10.790000,4.047127,-0.166708,9.246586,0.000000,0.787779,0.000000,28.939518,-15.426903,-35.050178
2646.000000,10.800000,3.570758,-0.139762,9.150540,0.000000,0.770833,0.000000,29.211065,-15.426903,-34.824193
2646.010000,10.810000,2.947267,-0.112361,9.093769,0.000000,0.759075,-0.000000,29.476419,-15.426903,-34.599875
2646.020000,10.820000,2.172637,-0.084593,9.076271,0.000000,0.757436,0.000000,29.736366,-15.426903,-34.376725
2646.030000,10.830000,1.276573,-0.056549,9.097723,0.000000,0.789020,0.000000,29.997166,-15.426903,-34.149388
2646.040000,10.840000,0.322716,-0.028321,9.157924,0.000000,0.875283,-0.000000,30.275125,-15.426903,-33.903207
2646.050000,10.850000,-0.628709,-0.000000,9.256612,0.000000,1.010690,-0.000000,30.590354,-15.426903,-33.619056
2646.060000,10.860000,-1.562748,0.028321,9.393432,0.000000,1.164180,0.000000,30.954218,-15.426903,-33.284337
2646.070000,10.870000,-2.505860,0.056549,9.567203,0.000000,1.312542,0.000000,31.364782,-15.426903,-32.897737
2646.080000,10.880000,-3.467580,0.084593,9.773250,0.000000,1.469391,0.000000,31.817219,-15.426903,-32.460364
2646.090000,10.890000,-4.381176,0.112361,10.000452,0.000000,1.672513,0.000000,32.317927,-15.426903,-31.961888
2646.100000,10.900000,-5.109878,0.139762,10.231677,0.000000,1.939001,-0.000000,32.885075,-15.426903,-31.378058
2646.110000,10.910000,-5.527290,0.166708,10.449691,0.000000,2.236619,-0.000000,33.532877,-15.426903,-30.684799
2646.120000,10.920000,-5.607522,0.193110,10.643798,0.000000,2.503553,-0.000000,34.255439,-15.426903,-29.876003
2646.130000,10.930000,-5.447805,0.218882,10.808645,0.000000,2.695477,0.000000,35.026781,-15.426903,-28.967832
2646.140000,10.940000,-5.205736,0.243940,10.936777,0.000000,2.811750,0.000000,35.815679,-15.426903,-27.986565
2646.150000,10.950000,-5.005025,0.268202,11.015869,0.000000,2.880937,0.000000,36.599759,-15.426903,-26.953076
2646.160000,10.960000,-4.881866,0.291589,11.034123,0.000000,2.929115,-0.000000,37.368108,-15.426903,-25.877310
