t_native_s,t_opt_s,ax,ay,az,gx,gy,gz,mx,my,mz
2642.500000,0.000000,0.000000,0.000000,9.810000,0.000000,0.000000,0.000000,18.385067,-15.426903,-41.569219
2642.510000,0.010000,0.000000,0.000000,9.810000,0.000000,0.000000,0.000000,18.385067,-15.426903,-41.569219
2642.520000,0.020000,0.000000,0.000000,9.810000,0.000000,0.000000,0.000000,18.385067,-15.426903,-41.569219
2642.530000,0.030000,0.000000,0.000000,9.810000,0.000000,0.000000,0.000000,18.385067,-15.426903,-41.569219
2642.540000,0.040000,0.000000,0.000000,9.810000,0.000000,0.000000,0.000000,18.385067,-15.426903,-41.569219
2642.550000,0.050000,0.000000,0.000000,9.810000,0.000000,0.000000,0.000000,18.385067,-15.426903,-41.569219
2642.560000,0.060000,0.000000,0.000000,9.810000,0.000000,0.000000,0.000000,18.385067,-15.426903,-41.569219
2642.570000,0.070000,0.000000,0.000000,9.810000,0.000000,0.000000,0.000000,18.385067,-15.426903,-41.569219
2642.580000,0.080000,0.000000,0.000000,9.810000,0.000000,0.000000,0.000000,18.385067,-15.426903,-41.569219
2642.590000,0.090000,0.000000,0.000000,9.810000,0.000000,0.000000,0.000000,18.385067,-15.426903,-41.569219
2642.600000,0.100000,0.000000,0.000000,9.810000,0.000000,0.000000,0.000000,18.385067,-15.426903,-41.569219
2642.610000,0.110000,0.000000,0.000000,9.810000,0.000000,0.000000,0.000000,18.385067,-15.426903,-41.569219
2642.620000,0.120000,0.000000,0.000000,9.810000,0.000000,0.000000,0.000000,18.385067,-15.426903,-41.569219
2642.630000,0.130000,0.000000,0.000000,9.810000,0.000000,0.000000,0.000000,18.385067,-15.426903,-41.569219
2642.640000,0.140000,0.000000,0.000000,9.810000,0.000000,0.000000,0.000000,18.385067,-15.426903,-41.569219
2642.650000,0.150000,0.000000,0.000000,9.810000,0.000000,0.000000,0.000000,18.385067,-15.426903,-41.569219
2642.660000,0.160000,0.000000,0.000000,9.810000,0.000000,0.000000,0.000000,18.385067,-15.426903,-41.569219
2642.670000,0.170000,0.000000,0.000000,9.810000,0.000000,0.000000,0.000000,18.385067,-15.426903,-41.569219
2642.680000,0.180000,0.000000,0.000000,9.810000,0.000000,0.000000,0.000000,18.385067,-15.426903,-41.569219
2642.690000,0.190000,0.000000,0.000000,9.810000,0.000000,0.000000,0.000000,18.385067,-15.426903,-41.569219
2642.700000,0.200000,0.000000,0.000000,9.810000,0.000000,0.000000,0.000000,18.385067,-15.426903,-41.569219
2642.710000,0.210000,0.000000,0.000000,9.810000,0.000000,0.000000,0.000000,18.385067,-15.426903,-41.569219
2642.720000,0.220000,0.000000,0.000000,9.810000,0.000000,0.000000,0.000000,18.385067,-15.426903,-41.569219
2642.730000,0.230000,0.000000,0.000000,9.810000,0.000000,0.000000,0.000000,18.385067,-15.426903,-41.569219
2642.740000,0.240000,0.000000,0.000000,9.810000,0.000000,0.000000,0.000000,18.385067,-15.426903,-41.569219
2642.750000,0.250000,0.000000,0.000000,9.810000,0.000000,0.000000,0.000000,18.385067,-15.426903,-41.569219
2642.760000,0.260000,0.000000,0.000000,9.810000,0.000000,0.000000,0.000000,18.385067,-15.426903,-41.569219
2642.770000,0.270000,0.000000,0.000000,9.810000,0.000000,0.000000,0.000000,18.385067,-15.426903,-41.569219
2642.780000,0.280000,0.000000,0.000000,9.810000,0.000000,0.000000,0.000000,18.385067,-15.426903,-41.569219
2642.790000,0.290000,0.000000,0.000000,9.810000,0.000000,0.000000,0.000000,18.385067,-15.426903,-41.569219
2642.800000,0.300000,0.000000,0.000000,9.810000,0.000000,0.000000,0.000000,18.385067,-15.426903,-41.569219
2642.810000,0.310000,0.000000,0.000000,9.810000,0.000000,0.000000,0.000000,18.385067,-15.426903,-41.569219
2642.820000,0.320000,0.000000,0.000000,9.810000,0.000000,0.000000,0.000000,18.385067,-15.426903,-41.569219
2642.830000,0.330000,0.000000,0.000000,9.810000,0.000000,0.000000,0.000000,18.385067,-15.426903,-41.569219
2642.840000,0.340000,0.000000,0.000000,9.810000,0.000000,0.000000,0.000000,18.385067,-15.426903,-41.569219
2642.850000,0.350000,0.000000,0.000000,9.810000,0.000000,0.000000,0.000000,18.385067,-15.426903,-41.569219
2642.860000,0.360000,0.000000,0.000000,9.810000,0.000000,0.000000,0.000000,18.385067,-15.426903,-41.569219
2642.870000,0.370000,0.000000,0.000000,9.810000,0.000000,0.000000,0.000000,18.385067,-15.426903,-41.569219
2642.880000,0.380000,0.000000,0.000000,9.810000,0.000000,0.000000,0.000000,18.385067,-15.426903,-41.569219
2642.890000,0.390000,0.000000,0.000000,9.810000,0.000000,0.000000,0.000000,18.385067,-15.426903,-41.569219
2642.900000,0.400000,0.000000,0.000000,9.810000,0.000000,0.000000,0.000000,18.385067,-15.426903,-41.569219
2642.910000,0.410000,0.000000,0.000000,9.810000,0.000000,0.000000,0.000000,18.385067,-15.426903,-41.569219
2642.920000,0.420000,0.000000,0.000000,9.810000,0.000000,0.000000,0.000000,18.385067,-15.426903,-41.569219
2642.930000,0.430000,0.000000,0.000000,9.810000,0.000000,0.000000,0.000000,18.385067,-15.426903,-41.569219
2642.940000,0.440000,0.000000,0.000000,9.810000,0.000000,0.000000,0.000000,18.385067,-15.426903,-41.569219
2642.950000,0.450000,0.000000,0.000000,9.810000,0.000000,0.000000,0.000000,18.385067,-15.426903,-41.569219
2642.960000,0.460000,0.000000,0.000000,9.810000,0.000000,0.000000,0.000000,18.385067,-15.426903,-41.569219
2642.970000,0.470000,0.000000,0.000000,9.810000,0.000000,0.000000,0.000000,18.385067,-15.426903,-41.569219
2642.980000,0.480000,0.000000,0.000000,9.810000,0.000000,0.000000,0.000000,18.385067,-15.426903,-41.569219
2642.990000,0.490000,0.000000,0.000000,9.810000,0.000000,0.000000,0.000000,18.385067,-15.426903,-41.569219
2643.000000,0.500000,0.000000,0.000000,9.810000,0.000000,0.000000,0.000000,18.385067,-15.426903,-41.569219
2643.010000,0.510000,0.000000,0.000000,9.810000,0.000000,0.000000,0.000000,18.385067,-15.426903,-41.569219
2643.020000,0.520000,0.000000,0.000000,9.810000,0.000000,0.000000,0.000000,18.385067,-15.426903,-41.569219
2643.030000,0.530000,0.000000,0.000000,9.810000,0.000000,0.000000,0.000000,18.385067,-15.426903,-41.569219
2643.040000,0.540000,0.000000,0.000000,9.810000,0.000000,0.000000,0.000000,18.385067,-15.426903,-41.569219
2643.050000,0.550000,0.000000,0.000000,9.810000,0.000000,0.000000,0.000000,18.385067,-15.426903,-41.569219
2643.060000,0.560000,0.000000,0.000000,9.810000,0.000000,0.000000,0.000000,18.385067,-15.426903,-41.569219
2643.070000,0.570000,0.000000,0.000000,9.810000,0.000000,0.000000,0.000000,18.385067,-15.426903,-41.569219
2643.080000,0.580000,0.000000,0.000000,9.810000,0.000000,0.000000,0.000000,18.385067,-15.426903,-41.569219
2643.090000,0.590000,0.000000,0.000000,9.810000,0.000000,0.000000,0.000000,18.385067,-15.426903,-41.569219
2643.100000,0.600000,0.000000,0.000000,9.810000,0.000000,0.000000,0.000000,18.385067,-15.426903,-41.569219
2643.110000,0.610000,0.000000,0.000000,9.810000,0.000000,0.000000,0.000000,18.385067,-15.426903,-41.569219
2643.120000,0.620000,0.000000,0.000000,9.810000,0.000000,0.000000,0.000000,18.385067,-15.426903,-41.569219
2643.130000,0.630000,0.000000,0.000000,9.810000,0.000000,0.000000,0.000000,18.385067,-15.426903,-41.569219
2643.140000,0.640000,0.000000,0.000000,9.810000,0.000000,0.000000,0.000000,18.385067,-15.426903,-41.569219
2643.150000,0.650000,0.000000,0.000000,9.810000,0.000000,0.000000,0.000000,18.385067,-15.426903,-41.569219
2643.160000,0.660000,0.000000,0.000000,9.810000,0.000000,0.000000,0.000000,18.385067,-15.426903,-41.569219
2643.170000,0.670000,0.000000,0.000000,9.810000,0.000000,0.000000,0.000000,18.385067,-15.426903,-41.569219
2643.180000,0.680000,0.000000,0.000000,9.810000,0.000000,0.000000,0.000000,18.385067,-15.426903,-41.569219
2643.190000,0.690000,0.000000,0.000000,9.810000,0.000000,0.000000,0.000000,18.385067,-15.426903,-41.569219
2643.200000,0.700000,0.000000,0.000000,9.810000,0.000000,0.000000,0.000000,18.385067,-15.426903,-41.569219
2643.210000,0.710000,0.000000,0.000000,9.810000,0.000000,0.000000,0.000000,18.385067,-15.426903,-41.569219
2643.220000,0.720000,0.000000,0.000000,9.810000,0.000000,0.000000,0.000000,18.385067,-15.426903,-41.569219
2643.230000,0.730000,0.000000,0.000000,9.810000,0.000000,0.000000,0.000000,18.385067,-15.426903,-41.569219
2643.240000,0.740000,0.000000,0.000000,9.810000,0.000000,0.000000,0.000000,18.385067,-15.426903,-41.569219
2643.250000,0.750000,0.000000,0.000000,9.810000,0.000000,0.000000,0.000000,18.385067,-15.426903,-41.569219
2643.260000,0.760000,0.000000,0.000000,9.810000,0.000000,0.000000,0.000000,18.385067,-15.426903,-41.569219
2643.270000,0.770000,0.000000,0.000000,9.810000,0.000000,0.000000,0.000000,18.385067,-15.426903,-41.569219
2643.280000,0.780000,0.000000,0.000000,9.810000,0.000000,0.000000,0.000000,18.385067,-15.426903,-41.569219
2643.290000,0.790000,0.000000,0.000000,9.810000,0.000000,0.000000,0.000000,18.385067,-15.426903,-41.569219
2643.300000,0.800000,0.000000,0.000000,9.810000,0.000000,0.000000,0.000000,18.385067,-15.426903,-41.569219
2643.310000,0.810000,0.000000,0.000000,9.810000,0.000000,0.000000,0.000000,18.385067,-15.426903,-41.569219
2643.320000,0.820000,0.000000,0.000000,9.810000,0.000000,0.000000,0.000000,18.385067,-15.426903,-41.569219
2643.330000,0.830000,0.000000,0.000000,9.810000,0.000000,0.000000,0.000000,18.385067,-15.426903,-41.569219
2643.340000,0.840000,0.000000,0.000000,9.810000,0.000000,0.000000,0.000000,18.385067,-15.426903,-41.569219
2643.350000,0.850000,0.000000,0.000000,9.810000,0.000000,0.000000,0.000000,18.385067,-15.426903,-41.569219
2643.360000,0.860000,0.000000,0.000000,9.810000,0.000000,0.000000,0.000000,18.385067,-15.426903,-41.569219
2643.370000,0.870000,0.000000,0.000000,9.810000,0.000000,0.000000,0.000000,18.385067,-15.426903,-41.569219
2643.380000,0.880000,0.000000,0.000000,9.810000,0.000000,0.000000,0.000000,18.385067,-15.426903,-41.569219
2643.390000,0.890000,0.000000,0.000000,9.810000,0.000000,0.000000,0.000000,18.385067,-15.426903,-41.569219
2643.400000,0.900000,0.000000,0.000000,9.810000,0.000000,0.000000,0.000000,18.385067,-15.426903,-41.569219
2643.410000,0.910000,0.000000,0.000000,9.810000,0.000000,0.000000,0.000000,18.385067,-15.426903,-41.569219
2643.420000,0.920000,0.000000,0.000000,9.810000,0.000000,0.000000,0.000000,18.385067,-15.426903,-41.569219
2643.430000,0.930000,0.000000,0.000000,9.810000,0.000000,0.000000,0.000000,18.385067,-15.426903,-41.569219
2643.440000,0.940000,0.000000,0.000000,9.810000,0.000000,0.000000,0.000000,18.385067,-15.426903,-41.569219
2643.450000,0.950000,0.000000,0.000000,9.810000,0.000000,0.000000,0.000000,18.385067,-15.426903,-41.569219
2643.460000,0.960000,0.000000,0.000000,9.810000,0.000000,0.000000,0.000000,18.385067,-15.426903,-41.569219
2643.470000,0.970000,0.000000,0.000000,9.810000,0.000000,0.000000,0.000000,18.385067,-15.426903,-41.569219
2643.480000,0.980000,0.000000,0.000000,9.810000,0.000000,0.000000,0.000000,18.385067,-15.426903,-41.569219
2643.490000,0.990000,0.000000,0.000000,9.810000,0.000000,0.000000,0.000000,18.385067,-15.426903,-41.569219
2643.500000,1.000000,0.000000,0.000000,9.810000,0.000000,0.000000,0.000000,18.385067,-15.426903,-41.569219
2643.510000,1.010000,0.000000,0.000000,9.810000,0.000000,0.000000,0.000000,18.385067,-15.426903,-41.569219
2643.520000,1.020000,0.000000,0.000000,9.810000,0.000000,0.000000,0.000000,18.385067,-15.426903,-41.569219
2643.530000,1.030000,0.000000,0.000000,9.810000,0.000000,0.000000,0.000000,18.385067,-15.426903,-41.569219
2643.540000,1.040000,0.000000,0.000000,9.810000,0.000000,0.000000,0.000000,18.385067,-15.426903,-41.569219
2643.550000,1.050000,0.000000,0.000000,9.810000,0.000000,0.000000,0.000000,18.385067,-15.426903,-41.569219
2643.560000,1.060000,0.000000,0.000000,9.810000,0.000000,0.000000,0.000000,18.385067,-15.426903,-41.569219
2643.570000,1.070000,0.000000,0.000000,9.810000,0.000000,0.000000,0.000000,18.385067,-15.426903,-41.569219
2643.580000,1.080000,0.000000,0.000000,9.810000,0.000000,0.000000,0.000000,18.385067,-15.426903,-41.569219
2643.590000,1.090000,0.000000,0.000000,9.810000,0.000000,0.000000,0.000000,18.385067,-15.426903,-41.569219
2643.600000,1.100000,0.000000,0.000000,9.810000,0.000000,0.000000,0.000000,18.385067,-15.426903,-41.569219
2643.610000,1.110000,0.000000,0.000000,9.810000,0.000000,0.000000,0.000000,18.385067,-15.426903,-41.569219
2643.620000,1.120000,0.000000,0.000000,9.810000,0.000000,0.000000,0.000000,18.385067,-15.426903,-41.569219
2643.630000,1.130000,0.000000,0.000000,9.810000,0.000000,0.000000,0.000000,18.385067,-15.426903,-41.569219
2643.640000,1.140000,0.000000,0.000000,9.810000,0.000000,0.000000,0.000000,18.385067,-15.426903,-41.569219
2643.650000,1.150000,0.000000,0.000000,9.810000,0.000000,0.000000,0.000000,18.385067,-15.426903,-41.569219
2643.660000,1.160000,0.000000,0.000000,9.810000,0.000000,0.000000,0.000000,18.385067,-15.426903,-41.569219
2643.670000,1.170000,0.000000,0.000000,9.810000,0.000000,0.000000,0.000000,18.385067,-15.426903,-41.569219
2643.680000,1.180000,0.000000,0.000000,9.810000,0.000000,0.000000,0.000000,18.385067,-15.426903,-41.569219
2643.690000,1.190000,0.000000,0.000000,9.810000,0.000000,0.000000,0.000000,18.385067,-15.426903,-41.569219
2643.700000,1.200000,0.000000,0.000000,9.810000,0.000000,0.000000,0.000000,18.385067,-15.426903,-41.569219
2643.710000,1.210000,0.000000,0.000000,9.810000,0.000000,0.000000,0.000000,18.385067,-15.426903,-41.569219
2643.720000,1.220000,0.000000,0.000000,9.810000,0.000000,0.000000,0.000000,18.385067,-15.426903,-41.569219
2643.730000,1.230000,0.000000,0.000000,9.810000,0.000000,0.000000,0.000000,18.385067,-15.426903,-41.569219
2643.740000,1.240000,0.000000,0.000000,9.810000,0.000000,0.000000,0.000000,18.385067,-15.426903,-41.569219
2643.750000,1.250000,0.000000,0.000000,9.810000,0.000000,0.000000,0.000000,18.385067,-15.426903,-41.569219
2643.760000,1.260000,0.000000,0.000000,9.810000,0.000000,0.000000,0.000000,18.385067,-15.426903,-41.569219
2643.770000,1.270000,0.000000,0.000000,9.810000,0.000000,0.000000,0.000000,18.385067,-15.426903,-41.569219
2643.780000,1.280000,0.000000,0.000000,9.810000,0.000000,0.000000,0.000000,18.385067,-15.426903,-41.569219
2643.790000,1.290000,0.000000,0.000000,9.810000,0.000000,0.000000,0.000000,18.385067,-15.426903,-41.569219
2643.800000,1.300000,0.000000,0.000000,9.810000,0.000000,0.000000,0.000000,18.385067,-15.426903,-41.569219
2643.810000,1.310000,0.000000,0.000000,9.810000,0.000000,0.000000,0.000000,18.385067,-15.426903,-41.569219
2643.820000,1.320000,0.000000,0.000000,9.810000,0.000000,0.000000,0.000000,18.385067,-15.426903,-41.569219
2643.830000,1.330000,0.000000,0.000000,9.810000,0.000000,0.000000,0.000000,18.385067,-15.426903,-41.569219
2643.840000,1.340000,0.000000,-0.000000,9.810000,0.000000,0.000000,0.000000,18.385067,-15.426903,-41.569219
2643.850000,1.350000,0.000000,-0.000000,9.810000,0.000000,0.000000,0.000000,18.385067,-15.426903,-41.569219
2643.860000,1.360000,0.000003,-0.000000,9.810000,0.000000,0.000000,0.000000,18.385067,-15.426903,-41.569219
2643.870000,1.370000,0.000018,0.000000,9.810000,0.000000,0.000000,0.000000,18.385067,-15.426903,-41.569219
2643.880000,1.380000,0.000091,0.000000,9.810000,0.000000,0.000000,0.000000,18.385067,-15.426903,-41.569219
2643.890000,1.390000,0.000391,0.000000,9.810000,0.000000,0.000000,0.000000,18.385067,-15.426903,-41.569219
2643.900000,1.400000,0.001472,0.000000,9.811673,0.000000,0.000000,0.000000,18.385067,-15.426903,-41.569219
2643.910000,1.410000,0.007089,0.000146,9.822572,0.000000,0.000000,0.000000,18.385067,-15.426903,-41.569219
2643.920000,1.420000,0.033152,0.001246,9.874529,0.000000,-0.000004,0.000000,18.385067,-15.426903,-41.569219
2643.930000,1.430000,0.141508,0.006895,10.071242,0.000000,-0.000038,-0.000000,18.385064,-15.426903,-41.569221
2643.940000,1.440000,0.536292,0.029777,10.634400,0.000000,-0.000240,-0.000000,18.385035,-15.426903,-41.569233
2643.950000,1.450000,1.720129,0.102048,11.816654,0.000000,-0.001172,0.000000,18.384864,-15.426903,-41.569309
2643.960000,1.460000,4.536024,0.278217,13.519679,0.000000,-0.004604,0.000000,18.384061,-15.426903,-41.569664
2643.970000,1.470000,9.710548,0.604819,14.838148,0.000000,-0.014861,-0.000000,18.381036,-15.426903,-41.571002
2643.980000,1.480000,16.800416,1.050325,14.329977,0.000000,-0.039965,0.000000,18.371705,-15.426903,-41.575126
2643.990000,1.490000,23.483229,1.458503,11.360467,0.000000,-0.090838,0.000000,18.347803,-15.426903,-41.585680
2644.000000,1.500000,26.587939,1.618605,7.198622,0.000000,-0.177374,-0.000000,18.296142,-15.426903,-41.608435
2644.010000,1.510000,24.550413,1.430182,4.182814,0.000000,-0.303032,-0.000000,18.200163,-15.426903,-41.650507
2644.020000,1.520000,18.788906,0.993776,3.637295,0.000000,-0.462063,0.000000,18.043634,-15.426903,-41.718556
2644.030000,1.530000,12.379111,0.520226,4.982727,0.000000,-0.641745,-0.000000,17.814487,-15.426903,-41.816919
2644.040000,1.540000,7.606089,0.165856,6.785316,0.000000,-0.827553,0.000000,17.506705,-15.426903,-41.946704
2644.050000,1.550000,4.919445,-0.037714,8.109999,0.000000,-1.007233,0.000000,17.119956,-15.426903,-42.106030
2644.060000,1.560000,3.630955,-0.136931,8.828531,0.000000,-1.171927,-0.000000,16.658193,-15.426903,-42.290841
2644.070000,1.570000,2.953004,-0.186215,9.180760,0.000000,-1.315364,0.000000,16.128417,-15.426903,-42.495704
2644.080000,1.580000,2.436781,-0.217635,9.385722,0.000000,-1.432767,-0.000000,15.539968,-15.426903,-42.714401
2644.090000,1.590000,1.919374,-0.243793,9.545288,0.000000,-1.520249,-0.000000,14.904191,-15.426903,-42.940375
2644.100000,1.600000,1.367265,-0.268202,9.687927,0.000000,-1.574637,0.000000,14.234204,-15.426903,-43.167095
2644.110000,1.610000,0.784813,-0.291589,9.817671,0.000000,-1.593494,-0.000000,13.544658,-15.426903,-43.388396
2644.120000,1.620000,0.184782,-0.314026,9.933736,0.000000,-1.575197,-0.000000,12.851420,-15.426903,-43.598758
2644.130000,1.630000,-0.418295,-0.335438,10.035247,0.000000,-1.519000,0.000000,12.171200,-15.426903,-43.793522
2644.140000,1.640000,-1.009898,-0.355756,10.123121,0.000000,-1.425083,0.000000,11.521111,-15.426903,-43.969019
2644.150000,1.650000,-1.575643,-0.374913,10.199945,0.000000,-1.294574,0.000000,10.918195,-15.426903,-44.122598
2644.160000,1.660000,-2.101572,-0.392848,10.269687,0.000000,-1.129543,0.000000,10.378922,-15.426903,-44.252555
2644.170000,1.670000,-2.574519,-0.409501,10.337261,0.000000,-0.932972,-0.000000,9.918704,-15.426903,-44.357975
2644.180000,1.680000,-2.982506,-0.424819,10.407965,0.000000,-0.708691,-0.000000,9.551422,-15.426903,-44.438508
2644.190000,1.690000,-3.315131,-0.438751,10.486862,0.000000,-0.461292,-0.000000,9.289001,-15.426903,-44.494102
2644.200000,1.700000,-3.563930,-0.451252,10.578151,0.000000,-0.196020,0.000000,9.141037,-15.426903,-44.524736
2644.210000,1.710000,-3.722693,-0.462280,10.684601,0.000000,0.081362,0.000000,9.114495,-15.426903,-44.530177
2644.220000,1.720000,-3.787699,-0.471802,10.807099,0.000000,0.364719,-0.000000,9.213478,-15.426903,-44.509802
2644.230000,1.730000,-3.757860,-0.479784,10.944379,0.000000,0.647708,-0.000000,9.439071,-15.426903,-44.462508
2644.240000,1.740000,-3.634752,-0.486201,11.092947,0.000000,0.923947,-0.000000,9.789280,-15.426903,-44.386717
2644.250000,1.750000,-3.422561,-0.491032,11.247239,0.000000,1.187190,0.000000,10.259045,-15.426903,-44.280500
2644.260000,1.760000,-3.127974,-0.494262,11.399993,0.000000,1.431494,0.000000,10.840356,-15.426903,-44.141787
2644.270000,1.770000,-2.760100,-0.495879,11.542819,0.000000,1.651380,-0.000000,11.522457,-15.426903,-43.968667
2644.280000,1.780000,-2.330525,-0.495879,11.666921,0.000000,1.841987,-0.000000,12.292143,-15.426903,-43.759729
2644.290000,1.790000,-1.853573,-0.494262,11.763908,0.000000,1.999207,0.000000,13.134158,-15.426903,-43.514418
2644.300000,1.800000,-1.346700,-0.491032,11.826587,0.000000,2.119828,0.000000,14.031663,-15.426903,-43.233356
2644.310000,1.810000,-0.830671,-0.486201,11.849624,0.000000,2.201718,0.000000,14.966801,-15.426903,-42.918592
2644.320000,1.820000,-0.328912,-0.479784,11.829953,0.000000,2.244107,-0.000000,15.921351,-15.426903,-42.573716
2644.330000,1.830000,0.134521,-0.471802,11.766889,0.000000,2.247972,0.000000,16.877520,-15.426903,-42.203791
2644.340000,1.840000,0.538352,-0.462280,11.661984,0.000000,2.216334,0.000000,17.818866,-15.426903,-41.815053
2644.350000,1.850000,0.867981,-0.451252,11.518733,0.000000,2.154143,-0.000000,18.731234,-15.426903,-41.414388
2644.360000,1.860000,1.118287,-0.438751,11.342214,0.000000,2.067493,-0.000000,19.603424,-15.426903,-41.008736
2644.370000,1.870000,1.293984,-0.424819,11.138661,0.000000,1.962410,0.000000,20.427334,-15.426903,-40.604615
2644.380000,1.880000,1.407236,-0.409501,10.914958,0.000000,1.843827,0.000000,21.197534,-15.426903,-40.207900
2644.390000,1.890000,1.473589,-0.392848,10.678096,0.000000,1.715218,0.000000,21.910548,-15.426903,-39.823844
2644.400000,1.900000,1.507943,-0.374913,10.434695,0.000000,1.578861,-0.000000,22.564165,-15.426903,-39.457181
2644.410000,1.910000,1.521927,-0.355756,10.190705,0.000000,1.436333,-0.000000,23.156994,-15.426903,-39.112202
2644.420000,1.920000,1.523110,-0.335438,9.951289,0.000000,1.288905,-0.000000,23.688212,-15.426903,-38.792774
2644.430000,1.930000,1.515551,-0.314026,9.720854,0.000000,1.137747,-0.000000,24.157455,-15.426903,-38.502312
2644.440000,1.940000,1.500924,-0.291589,9.503130,0.000000,0.984003,0.000000,24.564750,-15.426903,-38.243741
2644.450000,1.950000,1.479587,-0.268202,9.301263,0.000000,0.828803,-0.000000,24.910468,-15.426903,-38.019459
2644.460000,1.960000,1.451337,-0.243940,9.117868,0.000000,0.673259,-0.000000,25.195284,-15.426903,-37.831314
2644.470000,1.970000,1.415852,-0.218882,8.955061,0.000000,0.518453,0.000000,25.420138,-15.426903,-37.680596
2644.480000,1.980000,1.372907,-0.193110,8.814478,0.000000,0.365424,0.000000,25.586200,-15.426903,-37.568033
2644.490000,1.990000,1.322477,-0.166708,8.697294,0.000000,0.215165,-0.000000,25.694845,-15.426903,-37.493808
2644.500000,2.000000,1.264776,-0.139762,8.604241,0.000000,0.068603,-0.000000,25.747629,-15.426903,-37.457580
2644.510000,2.010000,1.200276,-0.112361,8.535632,0.000000,-0.073401,0.000000,25.746265,-15.426903,-37.458518
2644.520000,2.020000,1.129706,-0.084593,8.491396,0.000000,-0.210065,0.000000,25.692612,-15.426903,-37.495338
2644.530000,2.030000,1.054042,-0.056549,8.471113,0.000000,-0.340691,0.000000,25.588663,-15.426903,-37.566355
2644.540000,2.040000,0.974491,-0.028321,8.474047,0.000000,-0.464668,0.000000,25.436531,-15.426903,-37.669531
2644.550000,2.050000,0.892462,-0.000000,8.499190,0.000000,-0.581482,-0.000000,25.238444,-15.426903,-37.802535
2644.560000,2.060000,0.809537,0.028321,8.545295,0.000000,-0.690715,-0.000000,24.996735,-15.426903,-37.962796
2644.570000,2.070000,0.727432,0.056549,8.610915,0.000000,-0.792048,-0.000000,24.713833,-15.426903,-38.147571
2644.580000,2.080000,0.647956,0.084593,8.694439,0.000000,-0.885260,0.000000,24.392251,-15.426903,-38.353993
2644.590000,2.090000,0.572967,0.112361,8.794123,0.000000,-0.970231,0.000000,24.034575,-15.426903,-38.579138
2644.600000,2.100000,0.504326,0.139762,8.908118,0.000000,-1.046937,-0.000000,23.643449,-15.426903,-38.820072
2644.610000,2.110000,0.443850,0.166708,9.034499,0.000000,-1.115446,0.000000,23.221552,-15.426903,-39.073907
2644.620000,2.120000,0.393273,0.193110,9.171287,0.000000,-1.175916,-0.000000,22.771585,-15.426903,-39.337839
2644.630000,2.130000,0.354198,0.218882,9.316473,0.000000,-1.228590,-0.000000,22.296241,-15.426903,-39.609195
2644.640000,2.140000,0.328062,0.243940,9.468033,0.000000,-1.273785,0.000000,21.798183,-15.426903,-39.885460
2644.650000,2.150000,0.316104,0.268202,9.623948,0.000000,-1.311891,-0.000000,21.280016,-15.426903,-40.164308
2644.660000,2.160000,0.319331,0.291589,9.782218,0.000000,-1.343357,-0.000000,20.744262,-15.426903,-40.443618
2644.670000,2.170000,0.338501,0.314026,9.940876,0.000000,-1.368685,0.000000,20.193333,-15.426903,-40.721493
2644.680000,2.180000,0.374104,0.335438,10.098001,0.000000,-1.388420,-0.000000,19.629503,-15.426903,-40.996259
2644.690000,2.190000,0.426352,0.355756,10.251728,0.000000,-1.403140,0.000000,19.054886,-15.426903,-41.266475
2644.700000,2.200000,0.495174,0.374913,10.400261,0.000000,-1.413446,0.000000,18.471417,-15.426903,-41.530921
2644.710000,2.210000,0.580218,0.392848,10.541882,0.000000,-1.419951,-0.000000,17.880831,-15.426903,-41.788594
2644.720000,2.220000,0.680858,0.409501,10.674964,0.000000,-1.423269,0.000000,17.284650,-15.426903,-42.038691
2644.730000,2.230000,0.796209,0.424819,10.797980,0.000000,-1.424007,0.000000,16.684178,-15.426903,-42.280597
2644.740000,2.240000,0.925136,0.438751,10.909513,0.000000,-1.422753,-0.000000,16.080493,-15.426903,-42.513861
2644.750000,2.250000,1.066284,0.451252,11.008267,0.000000,-1.420067,0.000000,15.474448,-15.426903,-42.738181
2644.760000,2.260000,1.218093,0.462280,11.093076,0.000000,-1.416470,0.000000,14.866679,-15.426903,-42.953376
2644.770000,2.270000,1.378827,0.471802,11.162914,0.000000,-1.412441,-0.000000,14.257613,-15.426903,-43.159369
2644.780000,2.280000,1.546603,0.479784,11.216906,0.000000,-1.408403,0.000000,13.647486,-15.426903,-43.356162
2644.790000,2.290000,1.719418,0.486201,11.254334,0.000000,-1.404720,0.000000,13.036362,-15.426903,-43.543816
2644.800000,2.300000,1.895176,0.491032,11.274646,0.000000,-1.401690,-0.000000,12.424155,-15.426903,-43.722432
2644.810000,2.310000,2.071726,0.494262,11.277459,0.000000,-1.399542,0.000000,11.810661,-15.426903,-43.892129
2644.820000,2.320000,2.246882,0.495879,11.262570,0.000000,-1.398429,0.000000,11.195581,-15.426903,-44.053032
2644.830000,2.330000,2.418461,0.495879,11.229955,0.000000,-1.398429,-0.000000,10.578561,-15.426903,-44.205257
2644.840000,2.340000,2.584311,0.494262,11.179768,0.000000,-1.399542,-0.000000,9.959222,-15.426903,-44.348896
2644.850000,2.350000,2.742338,0.491032,11.112347,0.000000,-1.401690,-0.000000,9.337196,-15.426903,-44.484013
2644.860000,2.360000,2.890540,0.486201,11.028204,0.000000,-1.404720,0.000000,8.712163,-15.426903,-44.610637
2644.870000,2.370000,3.027028,0.479784,10.928028,0.000000,-1.408403,0.000000,8.083883,-15.426903,-44.728755
2644.880000,2.380000,3.150064,0.471802,10.812668,0.000000,-1.412441,-0.000000,7.452236,-15.426903,-44.838319
2644.890000,2.390000,3.258077,0.462280,10.683137,0.000000,-1.416470,-0.000000,6.817249,-15.426903,-44.939246
2644.900000,2.400000,3.349696,0.451252,10.540589,0.000000,-1.420067,0.000000,6.179130,-15.426903,-45.031423
2644.910000,2.410000,3.423768,0.438751,10.386316,0.000000,-1.422753,0.000000,5.538294,-15.426903,-45.114720
2644.920000,2.420000,3.479384,0.424819,10.221733,0.000000,-1.424007,0.000000,4.895386,-15.426903,-45.189002
2644.930000,2.430000,3.515894,0.409501,10.048364,0.000000,-1.423269,0.000000,4.251304,-15.426903,-45.254139
2644.940000,2.440000,3.532924,0.392848,9.867825,0.000000,-1.419951,-0.000000,3.607211,-15.426903,-45.310029
2644.950000,2.450000,3.530386,0.374913,9.681817,0.000000,-1.413446,0.000000,2.964546,-15.426903,-45.356611
2644.960000,2.460000,3.508487,0.355756,9.492104,0.000000,-1.403140,-0.000000,2.325032,-15.426903,-45.393886
2644.970000,2.470000,3.467729,0.335438,9.300507,0.000000,-1.388420,-0.000000,1.690671,-15.426903,-45.421936
2644.980000,2.480000,3.408909,0.314026,9.108885,0.000000,-1.368685,0.000000,1.063742,-15.426903,-45.440941
2644.990000,2.490000,3.333105,0.291589,8.919125,0.000000,-1.343357,-0.000000,0.446788,-15.426903,-45.451194
2645.000000,2.500000,3.241664,0.268202,8.733132,0.000000,-1.311891,-0.000000,-0.157400,-15.426903,-45.453118
2645.010000,2.510000,3.136182,0.243940,8.552817,0.000000,-1.273785,-0.000000,-0.745803,-15.426903,-45.447271
2645.020000,2.520000,3.018475,0.218882,8.380086,0.000000,-1.228590,0.000000,-1.315205,-15.426903,-45.434358
2645.030000,2.530000,2.890549,0.193110,8.216832,0.000000,-1.175916,-0.000000,-1.862215,-15.426903,-45.415227
2645.040000,2.540000,2.754560,0.166708,8.064925,0.000000,-1.115446,0.000000,-2.383307,-15.426903,-45.390864
2645.050000,2.550000,2.612776,0.139762,7.926200,0.000000,-1.046937,0.000000,-2.874853,-15.426903,-45.362384
2645.060000,2.560000,2.467530,0.112361,7.802449,0.000000,-0.970231,-0.000000,-3.333160,-15.426903,-45.331013
2645.070000,2.570000,2.321172,0.084593,7.695404,0.000000,-0.885260,-0.000000,-3.754510,-15.426903,-45.298061
2645.080000,2.580000,2.176024,0.056549,7.606726,0.000000,-0.792048,0.000000,-4.135201,-15.426903,-45.264896
2645.090000,2.590000,2.034329,0.028321,7.537984,0.000000,-0.690715,0.000000,-4.471581,-15.426903,-45.232904
2645.100000,2.600000,1.898205,-0.000000,7.490637,0.000000,-0.581482,-0.000000,-4.760094,-15.426903,-45.203453
2645.110000,2.610000,1.769598,-0.028321,7.466011,0.000000,-0.464668,-0.000000,-4.997312,-15.426903,-45.177844
2645.120000,2.620000,1.650245,-0.056549,7.465267,0.000000,-0.340691,0.000000,-5.179976,-15.426903,-45.157264
2645.130000,2.630000,1.541631,-0.084593,7.489375,0.000000,-0.210065,0.000000,-5.305028,-15.426903,-45.142744
2645.140000,2.640000,1.444964,-0.112361,7.539077,0.000000,-0.073401,-0.000000,-5.369649,-15.426903,-45.135103
2645.150000,2.650000,1.361149,-0.139762,7.614854,0.000000,0.068603,-0.000000,-5.371293,-15.426903,-45.134908
2645.160000,2.660000,1.290769,-0.166708,7.716885,0.000000,0.215165,0.000000,-5.307716,-15.426903,-45.142428
2645.170000,2.670000,1.234081,-0.193110,7.845016,0.000000,0.365424,0.000000,-5.177015,-15.426903,-45.157604
2645.180000,2.680000,1.191014,-0.218882,7.998718,0.000000,0.518453,0.000000,-4.977654,-15.426903,-45.180014
2645.190000,2.690000,1.161180,-0.243940,8.177062,0.000000,0.673259,0.000000,-4.708501,-15.426903,-45.208856
2645.200000,2.700000,1.143889,-0.268202,8.378686,0.000000,0.828803,-0.000000,-4.368859,-15.426903,-45.242941
2645.210000,2.710000,1.138185,-0.291589,8.601786,0.000000,0.984003,-0.000000,-3.958495,-15.426903,-45.280691
2645.220000,2.720000,1.142875,-0.314026,8.844099,0.000000,1.137748,-0.000000,-3.477672,-15.426903,-45.320155
2645.230000,2.730000,1.156572,-0.335438,9.102913,0.000000,1.288907,0.000000,-2.927176,-15.426903,-45.359038
2645.240000,2.740000,1.177754,-0.355756,9.375077,0.000000,1.436346,0.000000,-2.308344,-15.426903,-45.394738
2645.250000,2.750000,1.204807,-0.374913,9.657039,0.000000,1.578935,0.000000,-1.623077,-15.426903,-45.424402
2645.260000,2.760000,1.236092,-0.392848,9.944889,0.000000,1.715562,0.000000,-0.873864,-15.426903,-45.444989
2645.270000,2.770000,1.269994,-0.409501,10.234418,0.000000,1.845147,0.000000,-0.063783,-15.426903,-45.453345
2645.280000,2.780000,1.304985,-0.424819,10.521198,0.000000,1.966649,0.000000,0.803499,-15.426903,-45.446288
2645.290000,2.790000,1.339674,-0.438751,10.800668,0.000000,2.079082,-0.000000,1.723736,-15.426903,-45.420694
2645.300000,2.800000,1.372848,-0.451252,11.068235,0.000000,2.181525,-0.000000,2.692128,-15.426903,-45.373595
2645.310000,2.810000,1.403513,-0.462280,11.319379,0.000000,2.273130,0.000000,3.703352,-15.426903,-45.302272
2645.320000,2.820000,1.430917,-0.471802,11.549770,0.000000,2.353133,0.000000,4.751614,-15.426903,-45.204345
2645.330000,2.830000,1.454562,-0.479784,11.755376,0.000000,2.420865,-0.000000,5.830706,-15.426903,-45.077861
2645.340000,2.840000,1.474207,-0.486201,11.932574,0.000000,2.475752,0.000000,6.934076,-15.426903,-44.921368
2645.350000,2.850000,1.489855,-0.491032,12.078252,0.000000,2.517332,-0.000000,8.054907,-15.426903,-44.733982
2645.360000,2.860000,1.501727,-0.494262,12.189897,0.000000,2.545250,0.000000,9.186211,-15.426903,-44.515438
2645.370000,2.870000,1.510227,-0.495879,12.265668,0.000000,2.559269,0.000000,10.320916,-15.426903,-44.266120
2645.380000,2.880000,1.515899,-0.495879,12.304451,0.000000,2.559269,-0.000000,11.451970,-15.426903,-43.987078
2645.390000,2.890000,1.519372,-0.494262,12.305890,0.000000,2.545250,-0.000000,12.572432,-15.426903,-43.680026
2645.400000,2.900000,1.521313,-0.491032,12.270401,0.000000,2.517332,-0.000000,13.675569,-15.426903,-43.347312
2645.410000,2.910000,1.522367,-0.486201,12.199153,0.000000,2.475752,0.000000,14.754943,-15.426903,-42.991887
2645.420000,2.920000,1.523107,-0.479784,12.094033,0.000000,2.420865,-0.000000,15.804491,-15.426903,-42.617235
2645.430000,2.930000,1.523990,-0.471802,11.957595,0.000000,2.353133,0.000000,16.818589,-15.426903,-42.227310
2645.440000,2.940000,1.525320,-0.462280,11.792973,0.000000,2.273130,-0.000000,17.792114,-15.426903,-41.826443
2645.450000,2.950000,1.527219,-0.451252,11.603801,0.000000,2.181525,-0.000000,18.720476,-15.426903,-41.419252
2645.460000,2.960000,1.529614,-0.438751,11.394101,0.000000,2.079082,0.000000,19.599653,-15.426903,-41.010538
2645.470000,2.970000,1.532233,-0.424819,11.168182,0.000000,1.966649,0.000000,20.426200,-15.426903,-40.605185
2645.480000,2.980000,1.534615,-0.409501,10.930518,0.000000,1.845147,-0.000000,21.197247,-15.426903,-40.208051
2645.490000,2.990000,1.536132,-0.392848,10.685644,0.000000,1.715562,-0.000000,21.910488,-15.426903,-39.823877
2645.500000,3.000000,1.536015,-0.374913,10.438044,0.000000,1.578935,-0.000000,22.564155,-15.426903,-39.457186
2645.510000,3.010000,1.533399,-0.355756,10.192056,0.000000,1.436346,-0.000000,23.156993,-15.426903,-39.112202
2645.520000,3.020000,1.527361,-0.335438,9.951783,0.000000,1.288907,0.000000,23.688212,-15.426903,-38.792774
2645.530000,3.030000,1.516974,-0.314026,9.721015,0.000000,1.137748,0.000000,24.157455,-15.426903,-38.502312
2645.540000,3.040000,1.501353,-0.291589,9.503177,0.000000,0.984003,0.000000,24.564750,-15.426903,-38.243741
2645.550000,3.050000,1.479702,-0.268202,9.301276,0.000000,0.828803,-0.000000,24.910468,-15.426903,-38.019459
2645.560000,3.060000,1.451365,-0.243940,9.117871,0.000000,0.673259,-0.000000,25.195284,-15.426903,-37.831314
2645.570000,3.070000,1.415858,-0.218882,8.955061,0.000000,0.518453,0.000000,25.420138,-15.426903,-37.680596
2645.580000,3.080000,1.372908,-0.193110,8.814478,0.000000,0.365424,0.000000,25.586200,-15.426903,-37.568033
2645.590000,3.090000,1.322477,-0.166708,8.697295,0.000000,0.215165,-0.000000,25.694845,-15.426903,-37.493808
2645.600000,3.100000,1.264776,-0.139762,8.604241,0.000000,0.068603,-0.000000,25.747629,-15.426903,-37.457580
2645.610000,3.110000,1.200276,-0.112361,8.535632,0.000000,-0.073401,0.000000,25.746265,-15.426903,-37.458518
2645.620000,3.120000,1.129706,-0.084593,8.491396,0.000000,-0.210065,0.000000,25.692612,-15.426903,-37.495338
2645.630000,3.130000,1.054042,-0.056549,8.471113,0.000000,-0.340691,0.000000,25.588663,-15.426903,-37.566355
2645.640000,3.140000,0.974491,-0.028321,8.474047,0.000000,-0.464668,0.000000,25.436531,-15.426903,-37.669531
2645.650000,3.150000,0.892462,0.000000,8.499190,0.000000,-0.581482,-0.000000,25.238444,-15.426903,-37.802535
2645.660000,3.160000,0.809537,0.028321,8.545295,0.000000,-0.690715,-0.000000,24.996735,-15.426903,-37.962796
2645.670000,3.170000,0.727432,0.056549,8.610915,0.000000,-0.792048,-0.000000,24.713833,-15.426903,-38.147571
2645.680000,3.180000,0.647956,0.084593,8.694439,0.000000,-0.885260,0.000000,24.392251,-15.426903,-38.353993
2645.690000,3.190000,0.572967,0.112361,8.794123,0.000000,-0.970231,0.000000,24.034575,-15.426903,-38.579138
2645.700000,3.200000,0.504326,0.139762,8.908118,0.000000,-1.046937,-0.000000,23.643449,-15.426903,-38.820072
2645.710000,3.210000,0.443850,0.166708,9.034499,0.000000,-1.115446,0.000000,23.221552,-15.426903,-39.073907
2645.720000,3.220000,0.393273,0.193110,9.171287,0.000000,-1.175916,-0.000000,22.771585,-15.426903,-39.337839
2645.730000,3.230000,0.354198,0.218882,9.316473,0.000000,-1.228590,-0.000000,22.296241,-15.426903,-39.609195
2645.740000,3.240000,0.328062,0.243940,9.468033,0.000000,-1.273785,0.000000,21.798183,-15.426903,-39.885460
2645.750000,3.250000,0.316104,0.268202,9.623948,0.000000,-1.311891,-0.000000,21.280016,-15.426903,-40.164308
2645.760000,3.260000,0.319331,0.291589,9.782218,0.000000,-1.343357,-0.000000,20.744262,-15.426903,-40.443618
2645.770000,3.270000,0.338501,0.314026,9.940876,0.000000,-1.368685,0.000000,20.193333,-15.426903,-40.721493
2645.780000,3.280000,0.374104,0.335438,10.098001,0.000000,-1.388420,-0.000000,19.629503,-15.426903,-40.996259
2645.790000,3.290000,0.426352,0.355756,10.251728,0.000000,-1.403140,0.000000,19.054886,-15.426903,-41.266475
2645.800000,3.300000,0.495174,0.374913,10.400261,0.000000,-1.413446,0.000000,18.471417,-15.426903,-41.530921
2645.810000,3.310000,0.580218,0.392848,10.541882,0.000000,-1.419951,-0.000000,17.880831,-15.426903,-41.788594
2645.820000,3.320000,0.680858,0.409501,10.674964,0.000000,-1.423269,0.000000,17.284650,-15.426903,-42.038691
2645.830000,3.330000,0.796209,0.424819,10.797980,0.000000,-1.424007,0.000000,16.684178,-15.426903,-42.280597
2645.840000,3.340000,0.925136,0.438751,10.909513,0.000000,-1.422753,-0.000000,16.080493,-15.426903,-42.513861
2645.850000,3.350000,1.066284,0.451252,11.008267,0.000000,-1.420067,0.000000,15.474448,-15.426903,-42.738181
2645.860000,3.360000,1.218093,0.462280,11.093076,0.000000,-1.416470,0.000000,14.866679,-15.426903,-42.953376
2645.870000,3.370000,1.378827,0.471802,11.162914,0.000000,-1.412441,-0.000000,14.257613,-15.426903,-43.159369
2645.880000,3.380000,1.546603,0.479784,11.216906,0.000000,-1.408403,0.000000,13.647486,-15.426903,-43.356162
2645.890000,3.390000,1.719418,0.486201,11.254334,0.000000,-1.404720,0.000000,13.036362,-15.426903,-43.543816
2645.900000,3.400000,1.895176,0.491032,11.274646,0.000000,-1.401690,-0.000000,12.424155,-15.426903,-43.722432
2645.910000,3.410000,2.071726,0.494262,11.277459,0.000000,-1.399542,0.000000,11.810661,-15.426903,-43.892129
2645.920000,3.420000,2.246882,0.495879,11.262570,0.000000,-1.398429,0.000000,11.195581,-15.426903,-44.053032
2645.930000,3.430000,2.418461,0.495879,11.229955,0.000000,-1.398429,-0.000000,10.578561,-15.426903,-44.205257
2645.940000,3.440000,2.584311,0.494262,11.179768,0.000000,-1.399542,-0.000000,9.959222,-15.426903,-44.348896
2645.950000,3.450000,2.742338,0.491032,11.112347,0.000000,-1.401690,-0.000000,9.337196,-15.426903,-44.484013
2645.960000,3.460000,2.890540,0.486201,11.028204,0.000000,-1.404720,-0.000000,8.712163,-15.426903,-44.610637
2645.970000,3.470000,3.027028,0.479784,10.928028,0.000000,-1.408403,0.000000,8.083883,-15.426903,-44.728755
2645.980000,3.480000,3.150064,0.471802,10.812668,0.000000,-1.412441,-0.000000,7.452236,-15.426903,-44.838319
2645.990000,3.490000,3.258077,0.462280,10.683137,0.000000,-1.416470,-0.000000,6.817249,-15.426903,-44.939246
2646.000000,3.500000,3.349696,0.451252,10.540589,0.000000,-1.420067,0.000000,6.179130,-15.426903,-45.031423
2646.010000,3.510000,3.423768,0.438751,10.386316,0.000000,-1.422753,0.000000,5.538294,-15.426903,-45.114720
2646.020000,3.520000,3.479384,0.424819,10.221733,0.000000,-1.424007,0.000000,4.895386,-15.426903,-45.189002
2646.030000,3.530000,3.515894,0.409501,10.048364,0.000000,-1.423269,0.000000,4.251304,-15.426903,-45.254139
2646.040000,3.540000,3.532924,0.392848,9.867825,0.000000,-1.419951,-0.000000,3.607211,-15.426903,-45.310029
2646.050000,3.550000,3.530386,0.374913,9.681817,0.000000,-1.413446,-0.000000,2.964546,-15.426903,-45.356611
2646.060000,3.560000,3.508487,0.355756,9.492104,0.000000,-1.403140,-0.000000,2.325032,-15.426903,-45.393886
2646.070000,3.570000,3.467729,0.335438,9.300507,0.000000,-1.388420,0.000000,1.690671,-15.426903,-45.421936
2646.080000,3.580000,3.408909,0.314026,9.108885,0.000000,-1.368685,0.000000,1.063742,-15.426903,-45.440941
2646.090000,3.590000,3.333105,0.291589,8.919125,0.000000,-1.343357,-0.000000,0.446788,-15.426903,-45.451194
2646.100000,3.600000,3.241664,0.268202,8.733132,0.000000,-1.311891,-0.000000,-0.157400,-15.426903,-45.453118
2646.110000,3.610000,3.136182,0.243940,8.552817,0.000000,-1.273785,0.000000,-0.745803,-15.426903,-45.447271
2646.120000,3.620000,3.018475,0.218882,8.380086,0.000000,-1.228590,0.000000,-1.315205,-15.426903,-45.434358
2646.130000,3.630000,2.890549,0.193110,8.216832,0.000000,-1.175916,0.000000,-1.862215,-15.426903,-45.415227
2646.140000,3.640000,2.754560,0.166708,8.064925,0.000000,-1.115446,0.000000,-2.383307,-15.426903,-45.390864
2646.150000,3.650000,2.612776,0.139762,7.926200,0.000000,-1.046937,0.000000,-2.874853,-15.426903,-45.362384
2646.160000,3.660000,2.467530,0.112361,7.802449,0.000000,-0.970231,-0.000000,-3.333160,-15.426903,-45.331013
2646.170000,3.670000,2.321172,0.084593,7.695404,0.000000,-0.885260,-0.000000,-3.754510,-15.426903,-45.298061
2646.180000,3.680000,2.176024,0.056549,7.606726,0.000000,-0.792048,0.000000,-4.135201,-15.426903,-45.264896
2646.190000,3.690000,2.034329,0.028321,7.537984,0.000000,-0.690715,0.000000,-4.471581,-15.426903,-45.232904
2646.200000,3.700000,1.898205,-0.000000,7.490637,0.000000,-0.581482,-0.000000,-4.760094,-15.426903,-45.203453
2646.210000,3.710000,1.769598,-0.028321,7.466011,0.000000,-0.464668,-0.000000,-4.997312,-15.426903,-45.177844
2646.220000,3.720000,1.650245,-0.056549,7.465267,0.000000,-0.340691,-0.000000,-5.179976,-15.426903,-45.157264
2646.230000,3.730000,1.541631,-0.084593,7.489375,0.000000,-0.210065,0.000000,-5.305028,-15.426903,-45.142744
2646.240000,3.740000,1.444964,-0.112361,7.539077,0.000000,-0.073401,-0.000000,-5.369649,-15.426903,-45.135103
2646.250000,3.750000,1.361149,-0.139762,7.614854,0.000000,0.068603,-0.000000,-5.371293,-15.426903,-45.134908
2646.260000,3.760000,1.290769,-0.166708,7.716885,0.000000,0.215165,-0.000000,-5.307716,-15.426903,-45.142428
2646.270000,3.770000,1.234081,-0.193110,7.845016,0.000000,0.365424,0.000000,-5.177015,-15.426903,-45.157604
2646.280000,3.780000,1.191014,-0.218882,7.998718,0.000000,0.518453,-0.000000,-4.977654,-15.426903,-45.180014
2646.290000,3.790000,1.161180,-0.243940,8.177062,0.000000,0.673259,0.000000,-4.708501,-15.426903,-45.208856
2646.300000,3.800000,1.143889,-0.268202,8.378686,0.000000,0.828803,0.000000,-4.368859,-15.426903,-45.242941
2646.310000,3.810000,1.138185,-0.291589,8.601786,0.000000,0.984003,-0.000000,-3.958495,-15.426903,-45.280691
2646.320000,3.820000,1.142875,-0.314026,8.844099,0.000000,1.137748,-0.000000,-3.477672,-15.426903,-45.320155
2646.330000,3.830000,1.156572,-0.335438,9.102913,0.000000,1.288907,0.000000,-2.927176,-15.426903,-45.359038
2646.340000,3.840000,1.177754,-0.355756,9.375077,0.000000,1.436346,0.000000,-2.308344,-15.426903,-45.394738
2646.350000,3.850000,1.204807,-0.374913,9.657039,0.000000,1.578935,-0.000000,-1.623077,-15.426903,-45.424402
2646.360000,3.860000,1.236092,-0.392848,9.944889,0.000000,1.715562,0.000000,-0.873864,-15.426903,-45.444989
2646.370000,3.870000,1.269994,-0.409501,10.234418,0.000000,1.845147,0.000000,-0.063783,-15.426903,-45.453345
2646.380000,3.880000,1.304985,-0.424819,10.521198,0.000000,1.966649,0.000000,0.803499,-15.426903,-45.446288
2646.390000,3.890000,1.339674,-0.438751,10.800668,0.000000,2.079082,-0.000000,1.723736,-15.426903,-45.420694
2646.400000,3.900000,1.372848,-0.451252,11.068235,0.000000,2.181525,0.000000,2.692128,-15.426903,-45.373595
2646.410000,3.910000,1.403513,-0.462280,11.319379,0.000000,2.273130,0.000000,3.703352,-15.426903,-45.302272
2646.420000,3.920000,1.430917,-0.471802,11.549770,0.000000,2.353133,-0.000000,4.751614,-15.426903,-45.204345
2646.430000,3.930000,1.454562,-0.479784,11.755376,0.000000,2.420865,-0.000000,5.830706,-15.426903,-45.077861
2646.440000,3.940000,1.474207,-0.486201,11.932574,0.000000,2.475752,0.000000,6.934076,-15.426903,-44.921368
2646.450000,3.950000,1.489855,-0.491032,12.078252,0.000000,2.517332,-0.000000,8.054907,-15.426903,-44.733982
2646.460000,3.960000,1.501727,-0.494262,12.189897,0.000000,2.545250,0.000000,9.186211,-15.426903,-44.515438
2646.470000,3.970000,1.510227,-0.495879,12.265668,0.000000,2.559269,0.000000,10.320916,-15.426903,-44.266120
2646.480000,3.980000,1.515899,-0.495879,12.304451,0.000000,2.559269,-0.000000,11.451970,-15.426903,-43.987078
2646.490000,3.990000,1.519372,-0.494262,12.305890,0.000000,2.545250,-0.000000,12.572432,-15.426903,-43.680026
2646.500000,4.000000,1.521313,-0.491032,12.270401,0.000000,2.517332,-0.000000,13.675569,-15.426903,-43.347312
2646.510000,4.010000,1.522367,-0.486201,12.199153,0.000000,2.475752,0.000000,14.754943,-15.426903,-42.991887
2646.520000,4.020000,1.523107,-0.479784,12.094033,0.000000,2.420865,-0.000000,15.804491,-15.426903,-42.617235
2646.530000,4.030000,1.523990,-0.471802,11.957595,0.000000,2.353133,0.000000,16.818589,-15.426903,-42.227310
2646.540000,4.040000,1.525320,-0.462280,11.792973,0.000000,2.273130,-0.000000,17.792114,-15.426903,-41.826443
2646.550000,4.050000,1.527219,-0.451252,11.603801,0.000000,2.181525,-0.000000,18.720476,-15.426903,-41.419252
2646.560000,4.060000,1.529614,-0.438751,11.394101,0.000000,2.079082,0.000000,19.599653,-15.426903,-41.010538
2646.570000,4.070000,1.532233,-0.424819,11.168182,0.000000,1.966649,0.000000,20.426200,-15.426903,-40.605185
2646.580000,4.080000,1.534615,-0.409501,10.930518,0.000000,1.845147,-0.000000,21.197247,-15.426903,-40.208051
2646.590000,4.090000,1.536132,-0.392848,10.685644,0.000000,1.715562,-0.000000,21.910488,-15.426903,-39.823877
2646.600000,4.100000,1.536015,-0.374913,10.438044,0.000000,1.578935,-0.000000,22.564155,-15.426903,-39.457186
2646.610000,4.110000,1.533399,-0.355756,10.192056,0.000000,1.436346,-0.000000,23.156993,-15.426903,-39.112202
2646.620000,4.120000,1.527361,-0.335438,9.951783,0.000000,1.288907,-0.000000,23.688212,-15.426903,-38.792774
2646.630000,4.130000,1.516974,-0.314026,9.721015,0.000000,1.137748,0.000000,24.157455,-15.426903,-38.502312
2646.640000,4.140000,1.501353,-0.291589,9.503177,0.000000,0.984003,0.000000,24.564750,-15.426903,-38.243741
2646.650000,4.150000,1.479702,-0.268202,9.301276,0.000000,0.828803,-0.000000,24.910468,-15.426903,-38.019459
2646.660000,4.160000,1.451365,-0.243940,9.117871,0.000000,0.673259,-0.000000,25.195284,-15.426903,-37.831314
2646.670000,4.170000,1.415858,-0.218882,8.955061,0.000000,0.518453,0.000000,25.420138,-15.426903,-37.680596
2646.680000,4.180000,1.372908,-0.193110,8.814478,0.000000,0.365424,0.000000,25.586200,-15.426903,-37.568033
2646.690000,4.190000,1.322477,-0.166708,8.697295,0.000000,0.215165,-0.000000,25.694845,-15.426903,-37.493808
2646.700000,4.200000,1.264776,-0.139762,8.604241,0.000000,0.068603,-0.000000,25.747629,-15.426903,-37.457580
2646.710000,4.210000,1.200276,-0.112361,8.535632,0.000000,-0.073401,0.000000,25.746265,-15.426903,-37.458518
2646.720000,4.220000,1.129706,-0.084593,8.491396,0.000000,-0.210065,0.000000,25.692612,-15.426903,-37.495338
2646.730000,4.230000,1.054042,-0.056549,8.471113,0.000000,-0.340691,0.000000,25.588663,-15.426903,-37.566355
2646.740000,4.240000,0.974491,-0.028321,8.474047,0.000000,-0.464668,0.000000,25.436531,-15.426903,-37.669531
2646.750000,4.250000,0.892462,-0.000000,8.499190,0.000000,-0.581482,-0.000000,25.238444,-15.426903,-37.802535
2646.760000,4.260000,0.809537,0.028321,8.545295,0.000000,-0.690715,-0.000000,24.996735,-15.426903,-37.962796
2646.770000,4.270000,0.727432,0.056549,8.610915,0.000000,-0.792048,-0.000000,24.713833,-15.426903,-38.147571
2646.780000,4.280000,0.647956,0.084593,8.694439,0.000000,-0.885260,0.000000,24.392251,-15.426903,-38.353993
2646.790000,4.290000,0.572967,0.112361,8.794123,0.000000,-0.970231,0.000000,24.034575,-15.426903,-38.579138
2646.800000,4.300000,0.504326,0.139762,8.908118,0.000000,-1.046937,-0.000000,23.643449,-15.426903,-38.820072
2646.810000,4.310000,0.443850,0.166708,9.034499,0.000000,-1.115446,0.000000,23.221552,-15.426903,-39.073907
2646.820000,4.320000,0.393273,0.193110,9.171287,0.000000,-1.175916,-0.000000,22.771585,-15.426903,-39.337839
2646.830000,4.330000,0.354198,0.218882,9.316473,0.000000,-1.228590,-0.000000,22.296241,-15.426903,-39.609195
2646.840000,4.340000,0.328062,0.243940,9.468033,0.000000,-1.273785,0.000000,21.798183,-15.426903,-39.885460
2646.850000,4.350000,0.316104,0.268202,9.623948,0.000000,-1.311891,-0.000000,21.280016,-15.426903,-40.164308
2646.860000,4.360000,0.319331,0.291589,9.782218,0.000000,-1.343357,-0.000000,20.744262,-15.426903,-40.443618
2646.870000,4.370000,0.338501,0.314026,9.940876,0.000000,-1.368685,0.000000,20.193333,-15.426903,-40.721493
2646.880000,4.380000,0.374104,0.335438,10.098001,0.000000,-1.388420,-0.000000,19.629503,-15.426903,-40.996259
2646.890000,4.390000,0.426352,0.355756,10.251728,0.000000,-1.403140,0.000000,19.054886,-15.426903,-41.266475
2646.900000,4.400000,0.495174,0.374913,10.400261,0.000000,-1.413446,0.000000,18.471417,-15.426903,-41.530921
2646.910000,4.410000,0.580218,0.392848,10.541882,0.000000,-1.419951,-0.000000,17.880831,-15.426903,-41.788594
2646.920000,4.420000,0.680858,0.409501,10.674964,0.000000,-1.423269,0.000000,17.284650,-15.426903,-42.038691
2646.930000,4.430000,0.796209,0.424819,10.797980,0.000000,-1.424007,0.000000,16.684178,-15.426903,-42.280597
2646.940000,4.440000,0.925136,0.438751,10.909513,0.000000,-1.422753,-0.000000,16.080493,-15.426903,-42.513861
2646.950000,4.450000,1.066284,0.451252,11.008267,0.000000,-1.420067,0.000000,15.474448,-15.426903,-42.738181
2646.960000,4.460000,1.218093,0.462280,11.093076,0.000000,-1.416470,0.000000,14.866679,-15.426903,-42.953376
2646.970000,4.470000,1.378827,0.471802,11.162914,0.000000,-1.412441,-0.000000,14.257613,-15.426903,-43.159369
2646.980000,4.480000,1.546603,0.479784,11.216906,0.000000,-1.408403,0.000000,13.647486,-15.426903,-43.356162
2646.990000,4.490000,1.719418,0.486201,11.254334,0.000000,-1.404720,0.000000,13.036362,-15.426903,-43.543816
2647.000000,4.500000,1.895176,0.491032,11.274646,0.000000,-1.401690,-0.000000,12.424155,-15.426903,-43.722432
2647.010000,4.510000,2.071726,0.494262,11.277459,0.000000,-1.399542,0.000000,11.810661,-15.426903,-43.892129
2647.020000,4.520000,2.246882,0.495879,11.262570,0.000000,-1.398429,0.000000,11.195581,-15.426903,-44.053032
2647.030000,4.530000,2.418461,0.495879,11.229955,0.000000,-1.398429,-0.000000,10.578561,-15.426903,-44.205257
2647.040000,4.540000,2.584311,0.494262,11.179768,0.000000,-1.399542,-0.000000,9.959222,-15.426903,-44.348896
2647.050000,4.550000,2.742338,0.491032,11.112347,0.000000,-1.401690,-0.000000,9.337196,-15.426903,-44.484013
2647.060000,4.560000,2.890540,0.486201,11.028204,0.000000,-1.404720,-0.000000,8.712163,-15.426903,-44.610637
2647.070000,4.570000,3.027028,0.479784,10.928028,0.000000,-1.408403,0.000000,8.083883,-15.426903,-44.728755
2647.080000,4.580000,3.150064,0.471802,10.812668,0.000000,-1.412441,-0.000000,7.452236,-15.426903,-44.838319
2647.090000,4.590000,3.258077,0.462280,10.683137,0.000000,-1.416470,0.000000,6.817249,-15.426903,-44.939246
2647.100000,4.600000,3.349696,0.451252,10.540589,0.000000,-1.420067,0.000000,6.179130,-15.426903,-45.031423
2647.110000,4.610000,3.423768,0.438751,10.386316,0.000000,-1.422753,0.000000,5.538294,-15.426903,-45.114720
2647.120000,4.620000,3.479384,0.424819,10.221733,0.000000,-1.424007,0.000000,4.895386,-15.426903,-45.189002
2647.130000,4.630000,3.515894,0.409501,10.048364,0.000000,-1.423269,0.000000,4.251304,-15.426903,-45.254139
2647.140000,4.640000,3.532924,0.392848,9.867825,0.000000,-1.419951,-0.000000,3.607211,-15.426903,-45.310029
2647.150000,4.650000,3.530386,0.374913,9.681817,0.000000,-1.413446,-0.000000,2.964546,-15.426903,-45.356611
2647.160000,4.660000,3.508487,0.355756,9.492104,0.000000,-1.403140,0.000000,2.325032,-15.426903,-45.393886
2647.170000,4.670000,3.467729,0.335438,9.300507,0.000000,-1.388420,-0.000000,1.690671,-15.426903,-45.421936
2647.180000,4.680000,3.408909,0.314026,9.108885,0.000000,-1.368685,-0.000000,1.063742,-15.426903,-45.440941
2647.190000,4.690000,3.333105,0.291589,8.919125,0.000000,-1.343357,-0.000000,0.446788,-15.426903,-45.451194
2647.200000,4.700000,3.241664,0.268202,8.733132,0.000000,-1.311891,0.000000,-0.157400,-15.426903,-45.453118
2647.210000,4.710000,3.136182,0.243940,8.552817,0.000000,-1.273785,0.000000,-0.745803,-15.426903,-45.447271
2647.220000,4.720000,3.018475,0.218882,8.380086,0.000000,-1.228590,0.000000,-1.315205,-15.426903,-45.434358
2647.230000,4.730000,2.890549,0.193110,8.216832,0.000000,-1.175916,-0.000000,-1.862215,-15.426903,-45.415227
2647.240000,4.740000,2.754560,0.166708,8.064925,0.000000,-1.115446,0.000000,-2.383307,-15.426903,-45.390864
2647.250000,4.750000,2.612776,0.139762,7.926200,0.000000,-1.046937,0.000000,-2.874853,-15.426903,-45.362384
2647.260000,4.760000,2.467530,0.112361,7.802449,0.000000,-0.970231,-0.000000,-3.333160,-15.426903,-45.331013
2647.270000,4.770000,2.321172,0.084593,7.695404,0.000000,-0.885260,-0.000000,-3.754510,-15.426903,-45.298061
2647.280000,4.780000,2.176024,0.056549,7.606726,0.000000,-0.792048,-0.000000,-4.135201,-15.426903,-45.264896
2647.290000,4.790000,2.034329,0.028321,7.537984,0.000000,-0.690715,0.000000,-4.471581,-15.426903,-45.232904
2647.300000,4.800000,1.898205,-0.000000,7.490637,0.000000,-0.581482,-0.000000,-4.760094,-15.426903,-45.203453
2647.310000,4.810000,1.769598,-0.028321,7.466011,0.000000,-0.464668,-0.000000,-4.997312,-15.426903,-45.177844
2647.320000,4.820000,1.650245,-0.056549,7.465267,0.000000,-0.340691,0.000000,-5.179976,-15.426903,-45.157264
2647.330000,4.830000,1.541631,-0.084593,7.489375,0.000000,-0.210065,0.000000,-5.305028,-15.426903,-45.142744
2647.340000,4.840000,1.444964,-0.112361,7.539077,0.000000,-0.073401,-0.000000,-5.369649,-15.426903,-45.135103
2647.350000,4.850000,1.361149,-0.139762,7.614854,0.000000,0.068603,-0.000000,-5.371293,-15.426903,-45.134908
2647.360000,4.860000,1.290769,-0.166708,7.716885,0.000000,0.215165,-0.000000,-5.307716,-15.426903,-45.142428
2647.370000,4.870000,1.234081,-0.193110,7.845016,0.000000,0.365424,0.000000,-5.177015,-15.426903,-45.157604
2647.380000,4.880000,1.191014,-0.218882,7.998718,0.000000,0.518453,-0.000000,-4.977654,-15.426903,-45.180014
2647.390000,4.890000,1.161180,-0.243940,8.177062,0.000000,0.673259,-0.000000,-4.708501,-15.426903,-45.208856
2647.400000,4.900000,1.143889,-0.268202,8.378686,0.000000,0.828803,-0.000000,-4.368859,-15.426903,-45.242941
2647.410000,4.910000,1.138185,-0.291589,8.601786,0.000000,0.984003,-0.000000,-3.958495,-15.426903,-45.280691
2647.420000,4.920000,1.142875,-0.314026,8.844099,0.000000,1.137748,0.000000,-3.477672,-15.426903,-45.320155
2647.430000,4.930000,1.156572,-0.335438,9.102913,0.000000,1.288907,0.000000,-2.927176,-15.426903,-45.359038
2647.440000,4.940000,1.177754,-0.355756,9.375077,0.000000,1.436346,0.000000,-2.308344,-15.426903,-45.394738
2647.450000,4.950000,1.204807,-0.374913,9.657039,0.000000,1.578935,0.000000,-1.623077,-15.426903,-45.424402
2647.460000,4.960000,1.236092,-0.392848,9.944889,0.000000,1.715562,-0.000000,-0.873864,-15.426903,-45.444989
2647.470000,4.970000,1.269994,-0.409501,10.234418,0.000000,1.845147,-0.000000,-0.063783,-15.426903,-45.453345
2647.480000,4.980000,1.304985,-0.424819,10.521198,0.000000,1.966649,-0.000000,0.803499,-15.426903,-45.446288
2647.490000,4.990000,1.339674,-0.438751,10.800668,0.000000,2.079082,-0.000000,1.723736,-15.426903,-45.420694
2647.500000,5.000000,1.372848,-0.451252,11.068235,0.000000,2.181525,0.000000,2.692128,-15.426903,-45.373595
2647.510000,5.010000,1.403513,-0.462280,11.319379,0.000000,2.273130,0.000000,3.703352,-15.426903,-45.302272
2647.520000,5.020000,1.430917,-0.471802,11.549770,0.000000,2.353133,-0.000000,4.751614,-15.426903,-45.204345
2647.530000,5.030000,1.454562,-0.479784,11.755376,0.000000,2.420865,-0.000000,5.830706,-15.426903,-45.077861
2647.540000,5.040000,1.474207,-0.486201,11.932574,0.000000,2.475752,0.000000,6.934076,-15.426903,-44.921368
2647.550000,5.050000,1.489855,-0.491032,12.078252,0.000000,2.517332,-0.000000,8.054907,-15.426903,-44.733982
2647.560000,5.060000,1.501727,-0.494262,12.189897,0.000000,2.545250,0.000000,9.186211,-15.426903,-44.515438
2647.570000,5.070000,1.510227,-0.495879,12.265668,0.000000,2.559269,0.000000,10.320916,-15.426903,-44.266120
2647.580000,5.080000,1.515899,-0.495879,12.304451,0.000000,2.559269,-0.000000,11.451970,-15.426903,-43.987078
2647.590000,5.090000,1.519372,-0.494262,12.305890,0.000000,2.545250,-0.000000,12.572432,-15.426903,-43.680026
2647.600000,5.100000,1.521313,-0.491032,12.270401,0.000000,2.517332,-0.000000,13.675569,-15.426903,-43.347312
2647.610000,5.110000,1.522367,-0.486201,12.199153,0.000000,2.475752,0.000000,14.754943,-15.426903,-42.991887
2647.620000,5.120000,1.523107,-0.479784,12.094033,0.000000,2.420865,0.000000,15.804491,-15.426903,-42.617235
2647.630000,5.130000,1.523990,-0.471802,11.957595,0.000000,2.353133,0.000000,16.818589,-15.426903,-42.227310
2647.640000,5.140000,1.525320,-0.462280,11.792973,0.000000,2.273130,-0.000000,17.792114,-15.426903,-41.826443
2647.650000,5.150000,1.527219,-0.451252,11.603801,0.000000,2.181525,-0.000000,18.720476,-15.426903,-41.419252
2647.660000,5.160000,1.529614,-0.438751,11.394101,0.000000,2.079082,0.000000,19.599653,-15.426903,-41.010538
2647.670000,5.170000,1.532233,-0.424819,11.168182,0.000000,1.966649,0.000000,20.426200,-15.426903,-40.605185
2647.680000,5.180000,1.534615,-0.409501,10.930518,0.000000,1.845147,0.000000,21.197247,-15.426903,-40.208051
2647.690000,5.190000,1.536132,-0.392848,10.685644,0.000000,1.715562,-0.000000,21.910488,-15.426903,-39.823877
2647.700000,5.200000,1.536015,-0.374913,10.438044,0.000000,1.578935,-0.000000,22.564155,-15.426903,-39.457186
2647.710000,5.210000,1.533399,-0.355756,10.192056,0.000000,1.436346,-0.000000,23.156993,-15.426903,-39.112202
2647.720000,5.220000,1.527361,-0.335438,9.951783,0.000000,1.288907,-0.000000,23.688212,-15.426903,-38.792774
2647.730000,5.230000,1.516974,-0.314026,9.721015,0.000000,1.137748,0.000000,24.157455,-15.426903,-38.502312
2647.740000,5.240000,1.501353,-0.291589,9.503177,0.000000,0.984003,0.000000,24.564750,-15.426903,-38.243741
2647.750000,5.250000,1.479702,-0.268202,9.301276,0.000000,0.828803,-0.000000,24.910468,-15.426903,-38.019459
2647.760000,5.260000,1.451365,-0.243940,9.117871,0.000000,0.673259,-0.000000,25.195284,-15.426903,-37.831314
2647.770000,5.270000,1.415858,-0.218882,8.955061,0.000000,0.518453,0.000000,25.420138,-15.426903,-37.680596
2647.780000,5.280000,1.372908,-0.193110,8.814478,0.000000,0.365424,0.000000,25.586200,-15.426903,-37.568033
2647.790000,5.290000,1.322477,-0.166708,8.697295,0.000000,0.215165,-0.000000,25.694845,-15.426903,-37.493808
2647.800000,5.300000,1.264776,-0.139762,8.604241,0.000000,0.068603,-0.000000,25.747629,-15.426903,-37.457580
2647.810000,5.310000,1.200276,-0.112361,8.535632,0.000000,-0.073401,0.000000,25.746265,-15.426903,-37.458518
2647.820000,5.320000,1.129706,-0.084593,8.491396,0.000000,-0.210065,0.000000,25.692612,-15.426903,-37.495338
2647.830000,5.330000,1.054042,-0.056549,8.471113,0.000000,-0.340691,0.000000,25.588663,-15.426903,-37.566355
2647.840000,5.340000,0.974491,-0.028321,8.474047,0.000000,-0.464668,0.000000,25.436531,-15.426903,-37.669531
2647.850000,5.350000,0.892462,-0.000000,8.499190,0.000000,-0.581482,-0.000000,25.238444,-15.426903,-37.802535
2647.860000,5.360000,0.809537,0.028321,8.545295,0.000000,-0.690715,-0.000000,24.996735,-15.426903,-37.962796
2647.870000,5.370000,0.727432,0.056549,8.610915,0.000000,-0.792048,-0.000000,24.713833,-15.426903,-38.147571
2647.880000,5.380000,0.647956,0.084593,8.694439,0.000000,-0.885260,-0.000000,24.392251,-15.426903,-38.353993
2647.890000,5.390000,0.572967,0.112361,8.794123,0.000000,-0.970231,0.000000,24.034575,-15.426903,-38.579138
2647.900000,5.400000,0.504326,0.139762,8.908118,0.000000,-1.046937,0.000000,23.643449,-15.426903,-38.820072
2647.910000,5.410000,0.443850,0.166708,9.034499,0.000000,-1.115446,0.000000,23.221552,-15.426903,-39.073907
2647.920000,5.420000,0.393273,0.193110,9.171287,0.000000,-1.175916,-0.000000,22.771585,-15.426903,-39.337839
2647.930000,5.430000,0.354198,0.218882,9.316473,0.000000,-1.228590,-0.000000,22.296241,-15.426903,-39.609195
2647.940000,5.440000,0.328062,0.243940,9.468033,0.000000,-1.273785,0.000000,21.798183,-15.426903,-39.885460
2647.950000,5.450000,0.316104,0.268202,9.623948,0.000000,-1.311891,-0.000000,21.280016,-15.426903,-40.164308
2647.960000,5.460000,0.319331,0.291589,9.782218,0.000000,-1.343357,-0.000000,20.744262,-15.426903,-40.443618
2647.970000,5.470000,0.338501,0.314026,9.940876,0.000000,-1.368685,0.000000,20.193333,-15.426903,-40.721493
2647.980000,5.480000,0.374104,0.335438,10.098001,0.000000,-1.388420,-0.000000,19.629503,-15.426903,-40.996259
2647.990000,5.490000,0.426352,0.355756,10.251728,0.000000,-1.403140,0.000000,19.054886,-15.426903,-41.266475
2648.000000,5.500000,0.495174,0.374913,10.400261,0.000000,-1.413446,0.000000,18.471417,-15.426903,-41.530921
2648.010000,5.510000,0.580218,0.392848,10.541882,0.000000,-1.419951,-0.000000,17.880831,-15.426903,-41.788594
2648.020000,5.520000,0.680858,0.409501,10.674964,0.000000,-1.423269,0.000000,17.284650,-15.426903,-42.038691
2648.030000,5.530000,0.796209,0.424819,10.797980,0.000000,-1.424007,0.000000,16.684178,-15.426903,-42.280597
2648.040000,5.540000,0.925136,0.438751,10.909513,0.000000,-1.422753,-0.000000,16.080493,-15.426903,-42.513861
2648.050000,5.550000,1.066284,0.451252,11.008267,0.000000,-1.420067,0.000000,15.474448,-15.426903,-42.738181
2648.060000,5.560000,1.218093,0.462280,11.093076,0.000000,-1.416470,0.000000,14.866679,-15.426903,-42.953376
2648.070000,5.570000,1.378827,0.471802,11.162914,0.000000,-1.412441,-0.000000,14.257613,-15.426903,-43.159369
2648.080000,5.580000,1.546603,0.479784,11.216906,0.000000,-1.408403,0.000000,13.647486,-15.426903,-43.356162
2648.090000,5.590000,1.719418,0.486201,11.254334,0.000000,-1.404720,0.000000,13.036362,-15.426903,-43.543816
2648.100000,5.600000,1.895176,0.491032,11.274646,0.000000,-1.401690,-0.000000,12.424155,-15.426903,-43.722432
2648.110000,5.610000,2.071726,0.494262,11.277459,0.000000,-1.399542,0.000000,11.810661,-15.426903,-43.892129
2648.120000,5.620000,2.246882,0.495879,11.262570,0.000000,-1.398429,0.000000,11.195581,-15.426903,-44.053032
2648.130000,5.630000,2.418461,0.495879,11.229955,0.000000,-1.398429,-0.000000,10.578561,-15.426903,-44.205257
2648.140000,5.640000,2.584311,0.494262,11.179768,0.000000,-1.399542,-0.000000,9.959222,-15.426903,-44.348896
2648.150000,5.650000,2.742338,0.491032,11.112347,0.000000,-1.401690,-0.000000,9.337196,-15.426903,-44.484013
2648.160000,5.660000,2.890540,0.486201,11.028204,0.000000,-1.404720,-0.000000,8.712163,-15.426903,-44.610637
2648.170000,5.670000,3.027028,0.479784,10.928028,0.000000,-1.408403,0.000000,8.083883,-15.426903,-44.728755
2648.180000,5.680000,3.150064,0.471802,10.812668,0.000000,-1.412441,-0.000000,7.452236,-15.426903,-44.838319
2648.190000,5.690000,3.258077,0.462280,10.683137,0.000000,-1.416470,0.000000,6.817249,-15.426903,-44.939246
2648.200000,5.700000,3.349696,0.451252,10.540589,0.000000,-1.420067,0.000000,6.179130,-15.426903,-45.031423
2648.210000,5.710000,3.423768,0.438751,10.386316,0.000000,-1.422753,0.000000,5.538294,-15.426903,-45.114720
2648.220000,5.720000,3.479384,0.424819,10.221733,0.000000,-1.424007,-0.000000,4.895386,-15.426903,-45.189002
2648.230000,5.730000,3.515894,0.409501,10.048364,0.000000,-1.423269,0.000000,4.251304,-15.426903,-45.254139
2648.240000,5.740000,3.532924,0.392848,9.867825,0.000000,-1.419951,0.000000,3.607211,-15.426903,-45.310029
2648.250000,5.750000,3.530386,0.374913,9.681817,0.000000,-1.413446,-0.000000,2.964546,-15.426903,-45.356611
2648.260000,5.760000,3.508487,0.355756,9.492104,0.000000,-1.403140,0.000000,2.325032,-15.426903,-45.393886
2648.270000,5.770000,3.467729,0.335438,9.300507,0.000000,-1.388420,-0.000000,1.690671,-15.426903,-45.421936
2648.280000,5.780000,3.408909,0.314026,9.108885,0.000000,-1.368685,-0.000000,1.063742,-15.426903,-45.440941
2648.290000,5.790000,3.333105,0.291589,8.919125,0.000000,-1.343357,-0.000000,0.446788,-15.426903,-45.451194
2648.300000,5.800000,3.241664,0.268202,8.733132,0.000000,-1.311891,0.000000,-0.157400,-15.426903,-45.453118
2648.310000,5.810000,3.136182,0.243940,8.552817,0.000000,-1.273785,0.000000,-0.745803,-15.426903,-45.447271
2648.320000,5.820000,3.018475,0.218882,8.380086,0.000000,-1.228590,0.000000,-1.315205,-15.426903,-45.434358
2648.330000,5.830000,2.890549,0.193110,8.216832,0.000000,-1.175916,-0.000000,-1.862215,-15.426903,-45.415227
2648.340000,5.840000,2.754560,0.166708,8.064925,0.000000,-1.115446,0.000000,-2.383307,-15.426903,-45.390864
2648.350000,5.850000,2.612776,0.139762,7.926200,0.000000,-1.046937,0.000000,-2.874853,-15.426903,-45.362384
2648.360000,5.860000,2.467530,0.112361,7.802449,0.000000,-0.970231,-0.000000,-3.333160,-15.426903,-45.331013
2648.370000,5.870000,2.321172,0.084593,7.695404,0.000000,-0.885260,-0.000000,-3.754510,-15.426903,-45.298061
2648.380000,5.880000,2.176024,0.056549,7.606726,0.000000,-0.792048,0.000000,-4.135201,-15.426903,-45.264896
2648.390000,5.890000,2.034329,0.028321,7.537984,0.000000,-0.690715,0.000000,-4.471581,-15.426903,-45.232904
2648.400000,5.900000,1.898205,0.000000,7.490637,0.000000,-0.581482,-0.000000,-4.760094,-15.426903,-45.203453
2648.410000,5.910000,1.769598,-0.028321,7.466011,0.000000,-0.464668,-0.000000,-4.997312,-15.426903,-45.177844
2648.420000,5.920000,1.650245,-0.056549,7.465267,0.000000,-0.340691,-0.000000,-5.179976,-15.426903,-45.157264
2648.430000,5.930000,1.541631,-0.084593,7.489375,0.000000,-0.210065,0.000000,-5.305028,-15.426903,-45.142744
2648.440000,5.940000,1.444964,-0.112361,7.539077,0.000000,-0.073401,-0.000000,-5.369649,-15.426903,-45.135103
2648.450000,5.950000,1.361149,-0.139762,7.614854,0.000000,0.068603,-0.000000,-5.371293,-15.426903,-45.134908
2648.460000,5.960000,1.290769,-0.166708,7.716885,0.000000,0.215165,-0.000000,-5.307716,-15.426903,-45.142428
2648.470000,5.970000,1.234081,-0.193110,7.845016,0.000000,0.365424,0.000000,-5.177015,-15.426903,-45.157604
2648.480000,5.980000,1.191014,-0.218882,7.998718,0.000000,0.518453,-0.000000,-4.977654,-15.426903,-45.180014
2648.490000,5.990000,1.161180,-0.243940,8.177062,0.000000,0.673259,0.000000,-4.708501,-15.426903,-45.208856
2648.500000,6.000000,1.143889,-0.268202,8.378686,0.000000,0.828803,-0.000000,-4.368859,-15.426903,-45.242941
2648.510000,6.010000,1.138185,-0.291589,8.601786,0.000000,0.984003,-0.000000,-3.958495,-15.426903,-45.280691
2648.520000,6.020000,1.142875,-0.314026,8.844099,0.000000,1.137748,0.000000,-3.477672,-15.426903,-45.320155
2648.530000,6.030000,1.156572,-0.335438,9.102913,0.000000,1.288907,0.000000,-2.927176,-15.426903,-45.359038
2648.540000,6.040000,1.177754,-0.355756,9.375077,0.000000,1.436346,0.000000,-2.308344,-15.426903,-45.394738
2648.550000,6.050000,1.204807,-0.374913,9.657039,0.000000,1.578935,0.000000,-1.623077,-15.426903,-45.424402
2648.560000,6.060000,1.236092,-0.392848,9.944889,0.000000,1.715562,-0.000000,-0.873864,-15.426903,-45.444989
2648.570000,6.070000,1.269994,-0.409501,10.234418,0.000000,1.845147,0.000000,-0.063783,-15.426903,-45.453345
2648.580000,6.080000,1.304985,-0.424819,10.521198,0.000000,1.966649,0.000000,0.803499,-15.426903,-45.446288
2648.590000,6.090000,1.339674,-0.438751,10.800668,0.000000,2.079082,-0.000000,1.723736,-15.426903,-45.420694
2648.600000,6.100000,1.372848,-0.451252,11.068235,0.000000,2.181525,0.000000,2.692128,-15.426903,-45.373595
2648.610000,6.110000,1.403513,-0.462280,11.319379,0.000000,2.273130,0.000000,3.703352,-15.426903,-45.302272
2648.620000,6.120000,1.430917,-0.471802,11.549770,0.000000,2.353133,-0.000000,4.751614,-15.426903,-45.204345
2648.630000,6.130000,1.454562,-0.479784,11.755376,0.000000,2.420865,-0.000000,5.830706,-15.426903,-45.077861
2648.640000,6.140000,1.474207,-0.486201,11.932574,0.000000,2.475752,-0.000000,6.934076,-15.426903,-44.921368
2648.650000,6.150000,1.489855,-0.491032,12.078252,0.000000,2.517332,0.000000,8.054907,-15.426903,-44.733982
2648.660000,6.160000,1.501727,-0.494262,12.189897,0.000000,2.545250,0.000000,9.186211,-15.426903,-44.515438
2648.670000,6.170000,1.510227,-0.495879,12.265668,0.000000,2.559269,0.000000,10.320916,-15.426903,-44.266120
2648.680000,6.180000,1.515899,-0.495879,12.304451,0.000000,2.559269,0.000000,11.451970,-15.426903,-43.987078
2648.690000,6.190000,1.519372,-0.494262,12.305890,0.000000,2.545250,-0.000000,12.572432,-15.426903,-43.680026
2648.700000,6.200000,1.521313,-0.491032,12.270401,0.000000,2.517332,0.000000,13.675569,-15.426903,-43.347312
2648.710000,6.210000,1.522367,-0.486201,12.199153,0.000000,2.475752,0.000000,14.754943,-15.426903,-42.991887
2648.720000,6.220000,1.523107,-0.479784,12.094033,0.000000,2.420865,0.000000,15.804491,-15.426903,-42.617235
2648.730000,6.230000,1.523990,-0.471802,11.957595,0.000000,2.353133,0.000000,16.818589,-15.426903,-42.227310
2648.740000,6.240000,1.525320,-0.462280,11.792973,0.000000,2.273130,-0.000000,17.792114,-15.426903,-41.826443
2648.750000,6.250000,1.527219,-0.451252,11.603801,0.000000,2.181525,-0.000000,18.720476,-15.426903,-41.419252
2648.760000,6.260000,1.529614,-0.438751,11.394101,0.000000,2.079082,0.000000,19.599653,-15.426903,-41.010538
2648.770000,6.270000,1.532233,-0.424819,11.168182,0.000000,1.966649,0.000000,20.426200,-15.426903,-40.605185
2648.780000,6.280000,1.534615,-0.409501,10.930518,0.000000,1.845147,-0.000000,21.197247,-15.426903,-40.208051
2648.790000,6.290000,1.536132,-0.392848,10.685644,0.000000,1.715562,-0.000000,21.910488,-15.426903,-39.823877
2648.800000,6.300000,1.536015,-0.374913,10.438044,0.000000,1.578935,-0.000000,22.564155,-15.426903,-39.457186
2648.810000,6.310000,1.533399,-0.355756,10.192056,0.000000,1.436346,-0.000000,23.156993,-15.426903,-39.112202
2648.820000,6.320000,1.527361,-0.335438,9.951783,0.000000,1.288907,-0.000000,23.688212,-15.426903,-38.792774
2648.830000,6.330000,1.516974,-0.314026,9.721015,0.000000,1.137748,0.000000,24.157455,-15.426903,-38.502312
2648.840000,6.340000,1.501353,-0.291589,9.503177,0.000000,0.984003,0.000000,24.564750,-15.426903,-38.243741
2648.850000,6.350000,1.479702,-0.268202,9.301276,0.000000,0.828803,-0.000000,24.910468,-15.426903,-38.019459
2648.860000,6.360000,1.451365,-0.243940,9.117871,0.000000,0.673259,-0.000000,25.195284,-15.426903,-37.831314
2648.870000,6.370000,1.415858,-0.218882,8.955061,0.000000,0.518453,0.000000,25.420138,-15.426903,-37.680596
2648.880000,6.380000,1.372908,-0.193110,8.814478,0.000000,0.365424,0.000000,25.586200,-15.426903,-37.568033
2648.890000,6.390000,1.322477,-0.166708,8.697295,0.000000,0.215165,-0.000000,25.694845,-15.426903,-37.493808
2648.900000,6.400000,1.264776,-0.139762,8.604241,0.000000,0.068603,-0.000000,25.747629,-15.426903,-37.457580
2648.910000,6.410000,1.200276,-0.112361,8.535632,0.000000,-0.073401,0.000000,25.746265,-15.426903,-37.458518
2648.920000,6.420000,1.129706,-0.084593,8.491396,0.000000,-0.210065,0.000000,25.692612,-15.426903,-37.495338
2648.930000,6.430000,1.054042,-0.056549,8.471113,0.000000,-0.340691,0.000000,25.588663,-15.426903,-37.566355
2648.940000,6.440000,0.974491,-0.028321,8.474047,0.000000,-0.464668,0.000000,25.436531,-15.426903,-37.669531
2648.950000,6.450000,0.892462,-0.000000,8.499190,0.000000,-0.581482,-0.000000,25.238444,-15.426903,-37.802535
2648.960000,6.460000,0.809537,0.028321,8.545295,0.000000,-0.690715,-0.000000,24.996735,-15.426903,-37.962796
2648.970000,6.470000,0.727432,0.056549,8.610915,0.000000,-0.792048,-0.000000,24.713833,-15.426903,-38.147571
2648.980000,6.480000,0.647956,0.084593,8.694439,0.000000,-0.885260,-0.000000,24.392251,-15.426903,-38.353993
2648.990000,6.490000,0.572967,0.112361,8.794123,0.000000,-0.970231,0.000000,24.034575,-15.426903,-38.579138
2649.000000,6.500000,0.504326,0.139762,8.908118,0.000000,-1.046937,0.000000,23.643449,-15.426903,-38.820072
2649.010000,6.510000,0.443850,0.166708,9.034499,0.000000,-1.115446,0.000000,23.221552,-15.426903,-39.073907
2649.020000,6.520000,0.393273,0.193110,9.171287,0.000000,-1.175916,-0.000000,22.771585,-15.426903,-39.337839
2649.030000,6.530000,0.354198,0.218882,9.316473,0.000000,-1.228590,-0.000000,22.296241,-15.426903,-39.609195
2649.040000,6.540000,0.328062,0.243940,9.468033,0.000000,-1.273785,0.000000,21.798183,-15.426903,-39.885460
2649.050000,6.550000,0.316104,0.268202,9.623948,0.000000,-1.311891,-0.000000,21.280016,-15.426903,-40.164308
2649.060000,6.560000,0.319331,0.291589,9.782218,0.000000,-1.343357,-0.000000,20.744262,-15.426903,-40.443618
2649.070000,6.570000,0.338501,0.314026,9.940876,0.000000,-1.368685,0.000000,20.193333,-15.426903,-40.721493
2649.080000,6.580000,0.374104,0.335438,10.098001,0.000000,-1.388420,-0.000000,19.629503,-15.426903,-40.996259
2649.090000,6.590000,0.426352,0.355756,10.251728,0.000000,-1.403140,0.000000,19.054886,-15.426903,-41.266475
2649.100000,6.600000,0.495174,0.374913,10.400261,0.000000,-1.413446,0.000000,18.471417,-15.426903,-41.530921
2649.110000,6.610000,0.580218,0.392848,10.541882,0.000000,-1.419951,-0.000000,17.880831,-15.426903,-41.788594
2649.120000,6.620000,0.680858,0.409501,10.674964,0.000000,-1.423269,0.000000,17.284650,-15.426903,-42.038691
2649.130000,6.630000,0.796209,0.424819,10.797980,0.000000,-1.424007,0.000000,16.684178,-15.426903,-42.280597
2649.140000,6.640000,0.925136,0.438751,10.909513,0.000000,-1.422753,-0.000000,16.080493,-15.426903,-42.513861
2649.150000,6.650000,1.066284,0.451252,11.008267,0.000000,-1.420067,0.000000,15.474448,-15.426903,-42.738181
2649.160000,6.660000,1.218093,0.462280,11.093076,0.000000,-1.416470,0.000000,14.866679,-15.426903,-42.953376
2649.170000,6.670000,1.378827,0.471802,11.162914,0.000000,-1.412441,-0.000000,14.257613,-15.426903,-43.159369
2649.180000,6.680000,1.546603,0.479784,11.216906,0.000000,-1.408403,-0.000000,13.647486,-15.426903,-43.356162
2649.190000,6.690000,1.719418,0.486201,11.254334,0.000000,-1.404720,-0.000000,13.036362,-15.426903,-43.543816
2649.200000,6.700000,1.895176,0.491032,11.274646,0.000000,-1.401690,0.000000,12.424155,-15.426903,-43.722432
2649.210000,6.710000,2.071726,0.494262,11.277459,0.000000,-1.399542,0.000000,11.810661,-15.426903,-43.892129
2649.220000,6.720000,2.246882,0.495879,11.262570,0.000000,-1.398429,0.000000,11.195581,-15.426903,-44.053032
2649.230000,6.730000,2.418461,0.495879,11.229955,0.000000,-1.398429,-0.000000,10.578561,-15.426903,-44.205257
2649.240000,6.740000,2.584311,0.494262,11.179768,0.000000,-1.399542,-0.000000,9.959222,-15.426903,-44.348896
2649.250000,6.750000,2.742338,0.491032,11.112347,0.000000,-1.401690,-0.000000,9.337196,-15.426903,-44.484013
2649.260000,6.760000,2.890540,0.486201,11.028204,0.000000,-1.404720,-0.000000,8.712163,-15.426903,-44.610637
2649.270000,6.770000,3.027028,0.479784,10.928028,0.000000,-1.408403,0.000000,8.083883,-15.426903,-44.728755
2649.280000,6.780000,3.150064,0.471802,10.812668,0.000000,-1.412441,-0.000000,7.452236,-15.426903,-44.838319
2649.290000,6.790000,3.258077,0.462280,10.683137,0.000000,-1.416470,0.000000,6.817249,-15.426903,-44.939246
2649.300000,6.800000,3.349696,0.451252,10.540589,0.000000,-1.420067,-0.000000,6.179130,-15.426903,-45.031423
2649.310000,6.810000,3.423768,0.438751,10.386316,0.000000,-1.422753,-0.000000,5.538294,-15.426903,-45.114720
2649.320000,6.820000,3.479384,0.424819,10.221733,0.000000,-1.424007,0.000000,4.895386,-15.426903,-45.189002
2649.330000,6.830000,3.515894,0.409501,10.048364,0.000000,-1.423269,0.000000,4.251304,-15.426903,-45.254139
2649.340000,6.840000,3.532924,0.392848,9.867825,0.000000,-1.419951,0.000000,3.607211,-15.426903,-45.310029
2649.350000,6.850000,3.530386,0.374913,9.681817,0.000000,-1.413446,-0.000000,2.964546,-15.426903,-45.356611
2649.360000,6.860000,3.508487,0.355756,9.492104,0.000000,-1.403140,-0.000000,2.325032,-15.426903,-45.393886
2649.370000,6.870000,3.467729,0.335438,9.300507,0.000000,-1.388420,0.000000,1.690671,-15.426903,-45.421936
2649.380000,6.880000,3.408909,0.314026,9.108885,0.000000,-1.368685,0.000000,1.063742,-15.426903,-45.440941
2649.390000,6.890000,3.333105,0.291589,8.919125,0.000000,-1.343357,-0.000000,0.446788,-15.426903,-45.451194
2649.400000,6.900000,3.241664,0.268202,8.733132,0.000000,-1.311891,-0.000000,-0.157400,-15.426903,-45.453118
2649.410000,6.910000,3.136182,0.243940,8.552817,0.000000,-1.273785,0.000000,-0.745803,-15.426903,-45.447271
2649.420000,6.920000,3.018475,0.218882,8.380086,0.000000,-1.228590,-0.000000,-1.315205,-15.426903,-45.434358
2649.430000,6.930000,2.890549,0.193110,8.216832,0.000000,-1.175916,0.000000,-1.862215,-15.426903,-45.415227
2649.440000,6.940000,2.754560,0.166708,8.064925,0.000000,-1.115446,0.000000,-2.383307,-15.426903,-45.390864
2649.450000,6.950000,2.612776,0.139762,7.926200,0.000000,-1.046937,-0.000000,-2.874853,-15.426903,-45.362384
2649.460000,6.960000,2.467530,0.112361,7.802449,0.000000,-0.970231,0.000000,-3.333160,-15.426903,-45.331013
2649.470000,6.970000,2.321172,0.084593,7.695404,0.000000,-0.885260,0.000000,-3.754510,-15.426903,-45.298061
2649.480000,6.980000,2.176024,0.056549,7.606726,0.000000,-0.792048,0.000000,-4.135201,-15.426903,-45.264896
2649.490000,6.990000,2.034329,0.028321,7.537984,0.000000,-0.690715,0.000000,-4.471581,-15.426903,-45.232904
2649.500000,7.000000,1.898205,0.000000,7.490637,0.000000,-0.581482,-0.000000,-4.760094,-15.426903,-45.203453
2649.510000,7.010000,1.769598,-0.028321,7.466011,0.000000,-0.464668,-0.000000,-4.997312,-15.426903,-45.177844
2649.520000,7.020000,1.650245,-0.056549,7.465267,0.000000,-0.340691,-0.000000,-5.179976,-15.426903,-45.157264
2649.530000,7.030000,1.541631,-0.084593,7.489375,0.000000,-0.210065,0.000000,-5.305028,-15.426903,-45.142744
2649.540000,7.040000,1.444964,-0.112361,7.539077,0.000000,-0.073401,-0.000000,-5.369649,-15.426903,-45.135103
2649.550000,7.050000,1.361149,-0.139762,7.614854,0.000000,0.068603,0.000000,-5.371293,-15.426903,-45.134908
2649.560000,7.060000,1.290769,-0.166708,7.716885,0.000000,0.215165,-0.000000,-5.307716,-15.426903,-45.142428
2649.570000,7.070000,1.234081,-0.193110,7.845016,0.000000,0.365424,0.000000,-5.177015,-15.426903,-45.157604
2649.580000,7.080000,1.191014,-0.218882,7.998718,0.000000,0.518453,0.000000,-4.977654,-15.426903,-45.180014
2649.590000,7.090000,1.161180,-0.243940,8.177062,0.000000,0.673259,-0.000000,-4.708501,-15.426903,-45.208856
2649.600000,7.100000,1.143889,-0.268202,8.378686,0.000000,0.828803,-0.000000,-4.368859,-15.426903,-45.242941
2649.610000,7.110000,1.138185,-0.291589,8.601786,0.000000,0.984003,-0.000000,-3.958495,-15.426903,-45.280691
2649.620000,7.120000,1.142875,-0.314026,8.844099,0.000000,1.137748,-0.000000,-3.477672,-15.426903,-45.320155
2649.630000,7.130000,1.156572,-0.335438,9.102913,0.000000,1.288907,0.000000,-2.927176,-15.426903,-45.359038
2649.640000,7.140000,1.177754,-0.355756,9.375077,0.000000,1.436346,0.000000,-2.308344,-15.426903,-45.394738
2649.650000,7.150000,1.204807,-0.374913,9.657039,0.000000,1.578935,-0.000000,-1.623077,-15.426903,-45.424402
2649.660000,7.160000,1.236092,-0.392848,9.944889,0.000000,1.715562,-0.000000,-0.873864,-15.426903,-45.444989
2649.670000,7.170000,1.269994,-0.409501,10.234418,0.000000,1.845147,0.000000,-0.063783,-15.426903,-45.453345
2649.680000,7.180000,1.304985,-0.424819,10.521198,0.000000,1.966649,-0.000000,0.803499,-15.426903,-45.446288
2649.690000,7.190000,1.339674,-0.438751,10.800668,0.000000,2.079082,-0.000000,1.723736,-15.426903,-45.420694
2649.700000,7.200000,1.372848,-0.451252,11.068235,0.000000,2.181525,-0.000000,2.692128,-15.426903,-45.373595
2649.710000,7.210000,1.403513,-0.462280,11.319379,0.000000,2.273130,-0.000000,3.703352,-15.426903,-45.302272
2649.720000,7.220000,1.430917,-0.471802,11.549770,0.000000,2.353133,0.000000,4.751614,-15.426903,-45.204345
2649.730000,7.230000,1.454562,-0.479784,11.755376,0.000000,2.420865,0.000000,5.830706,-15.426903,-45.077861
2649.740000,7.240000,1.474207,-0.486201,11.932574,0.000000,2.475752,0.000000,6.934076,-15.426903,-44.921368
2649.750000,7.250000,1.489855,-0.491032,12.078252,0.000000,2.517332,-0.000000,8.054907,-15.426903,-44.733982
2649.760000,7.260000,1.501727,-0.494262,12.189897,0.000000,2.545250,-0.000000,9.186211,-15.426903,-44.515438
2649.770000,7.270000,1.510227,-0.495879,12.265668,0.000000,2.559269,0.000000,10.320916,-15.426903,-44.266120
2649.780000,7.280000,1.515899,-0.495879,12.304451,0.000000,2.559269,0.000000,11.451970,-15.426903,-43.987078
2649.790000,7.290000,1.519372,-0.494262,12.305890,0.000000,2.545250,-0.000000,12.572432,-15.426903,-43.680026
2649.800000,7.300000,1.521313,-0.491032,12.270401,0.000000,2.517332,0.000000,13.675569,-15.426903,-43.347312
2649.810000,7.310000,1.522367,-0.486201,12.199153,0.000000,2.475752,0.000000,14.754943,-15.426903,-42.991887
2649.820000,7.320000,1.523107,-0.479784,12.094033,0.000000,2.420865,-0.000000,15.804491,-15.426903,-42.617235
2649.830000,7.330000,1.523990,-0.471802,11.957595,0.000000,2.353133,0.000000,16.818589,-15.426903,-42.227310
2649.840000,7.340000,1.525320,-0.462280,11.792973,0.000000,2.273130,-0.000000,17.792114,-15.426903,-41.826443
2649.850000,7.350000,1.527219,-0.451252,11.603801,0.000000,2.181525,-0.000000,18.720476,-15.426903,-41.419252
2649.860000,7.360000,1.529614,-0.438751,11.394101,0.000000,2.079082,0.000000,19.599653,-15.426903,-41.010538
2649.870000,7.370000,1.532233,-0.424819,11.168182,0.000000,1.966649,0.000000,20.426200,-15.426903,-40.605185
2649.880000,7.380000,1.534615,-0.409501,10.930518,0.000000,1.845147,0.000000,21.197247,-15.426903,-40.208051
2649.890000,7.390000,1.536132,-0.392848,10.685644,0.000000,1.715562,-0.000000,21.910488,-15.426903,-39.823877
2649.900000,7.400000,1.536015,-0.374913,10.438044,0.000000,1.578935,-0.000000,22.564155,-15.426903,-39.457186
2649.910000,7.410000,1.533399,-0.355756,10.192056,0.000000,1.436346,0.000000,23.156993,-15.426903,-39.112202
2649.920000,7.420000,1.527361,-0.335438,9.951783,0.000000,1.288907,-0.000000,23.688212,-15.426903,-38.792774
2649.930000,7.430000,1.516974,-0.314026,9.721015,0.000000,1.137748,-0.000000,24.157455,-15.426903,-38.502312
2649.940000,7.440000,1.501353,-0.291589,9.503177,0.000000,0.984003,0.000000,24.564750,-15.426903,-38.243741
2649.950000,7.450000,1.479702,-0.268202,9.301276,0.000000,0.828803,-0.000000,24.910468,-15.426903,-38.019459
2649.960000,7.460000,1.451365,-0.243940,9.117871,0.000000,0.673259,-0.000000,25.195284,-15.426903,-37.831314
2649.970000,7.470000,1.415858,-0.218882,8.955061,0.000000,0.518453,0.000000,25.420138,-15.426903,-37.680596
2649.980000,7.480000,1.372908,-0.193110,8.814478,0.000000,0.365424,0.000000,25.586200,-15.426903,-37.568033
2649.990000,7.490000,1.322477,-0.166708,8.697295,0.000000,0.215165,-0.000000,25.694845,-15.426903,-37.493808
2650.000000,7.500000,1.264776,-0.139762,8.604241,0.000000,0.068603,-0.000000,25.747629,-15.426903,-37.457580
2650.010000,7.510000,1.200276,-0.112361,8.535632,0.000000,-0.073401,-0.000000,25.746265,-15.426903,-37.458518
2650.020000,7.520000,1.129706,-0.084593,8.491396,0.000000,-0.210065,0.000000,25.692612,-15.426903,-37.495338
2650.030000,7.530000,1.054042,-0.056549,8.471113,0.000000,-0.340691,0.000000,25.588663,-15.426903,-37.566355
2650.040000,7.540000,0.974491,-0.028321,8.474047,0.000000,-0.464668,0.000000,25.436531,-15.426903,-37.669531
2650.050000,7.550000,0.892462,-0.000000,8.499190,0.000000,-0.581482,-0.000000,25.238444,-15.426903,-37.802535
2650.060000,7.560000,0.809537,0.028321,8.545295,0.000000,-0.690715,-0.000000,24.996735,-15.426903,-37.962796
2650.070000,7.570000,0.727432,0.056549,8.610915,0.000000,-0.792048,-0.000000,24.713833,-15.426903,-38.147571
2650.080000,7.580000,0.647956,0.084593,8.694439,0.000000,-0.885260,0.000000,24.392251,-15.426903,-38.353993
2650.090000,7.590000,0.572967,0.112361,8.794123,0.000000,-0.970231,0.000000,24.034575,-15.426903,-38.579138
2650.100000,7.600000,0.504326,0.139762,8.908118,0.000000,-1.046937,-0.000000,23.643449,-15.426903,-38.820072
2650.110000,7.610000,0.443850,0.166708,9.034499,0.000000,-1.115446,0.000000,23.221552,-15.426903,-39.073907
2650.120000,7.620000,0.393273,0.193110,9.171287,0.000000,-1.175916,-0.000000,22.771585,-15.426903,-39.337839
2650.130000,7.630000,0.354198,0.218882,9.316473,0.000000,-1.228590,-0.000000,22.296241,-15.426903,-39.609195
2650.140000,7.640000,0.328062,0.243940,9.468033,0.000000,-1.273785,0.000000,21.798183,-15.426903,-39.885460
2650.150000,7.650000,0.316104,0.268202,9.623948,0.000000,-1.311891,-0.000000,21.280016,-15.426903,-40.164308
2650.160000,7.660000,0.319331,0.291589,9.782218,0.000000,-1.343357,-0.000000,20.744262,-15.426903,-40.443618
2650.170000,7.670000,0.338501,0.314026,9.940876,0.000000,-1.368685,0.000000,20.193333,-15.426903,-40.721493
2650.180000,7.680000,0.374104,0.335438,10.098001,0.000000,-1.388420,-0.000000,19.629503,-15.426903,-40.996259
2650.190000,7.690000,0.426352,0.355756,10.251728,0.000000,-1.403140,0.000000,19.054886,-15.426903,-41.266475
2650.200000,7.700000,0.495174,0.374913,10.400261,0.000000,-1.413446,0.000000,18.471417,-15.426903,-41.530921
2650.210000,7.710000,0.580218,0.392848,10.541882,0.000000,-1.419951,-0.000000,17.880831,-15.426903,-41.788594
2650.220000,7.720000,0.680858,0.409501,10.674964,0.000000,-1.423269,0.000000,17.284650,-15.426903,-42.038691
2650.230000,7.730000,0.796209,0.424819,10.797980,0.000000,-1.424007,0.000000,16.684178,-15.426903,-42.280597
2650.240000,7.740000,0.925136,0.438751,10.909513,0.000000,-1.422753,-0.000000,16.080493,-15.426903,-42.513861
2650.250000,7.750000,1.066284,0.451252,11.008267,0.000000,-1.420067,0.000000,15.474448,-15.426903,-42.738181
2650.260000,7.760000,1.218093,0.462280,11.093076,0.000000,-1.416470,0.000000,14.866679,-15.426903,-42.953376
2650.270000,7.770000,1.378827,0.471802,11.162914,0.000000,-1.412441,-0.000000,14.257613,-15.426903,-43.159369
2650.280000,7.780000,1.546603,0.479784,11.216906,0.000000,-1.408403,0.000000,13.647486,-15.426903,-43.356162
2650.290000,7.790000,1.719418,0.486201,11.254334,0.000000,-1.404720,0.000000,13.036362,-15.426903,-43.543816
2650.300000,7.800000,1.895176,0.491032,11.274646,0.000000,-1.401690,-0.000000,12.424155,-15.426903,-43.722432
2650.310000,7.810000,2.071726,0.494262,11.277459,0.000000,-1.399542,0.000000,11.810661,-15.426903,-43.892129
2650.320000,7.820000,2.246882,0.495879,11.262570,0.000000,-1.398429,-0.000000,11.195581,-15.426903,-44.053032
2650.330000,7.830000,2.418461,0.495879,11.229955,0.000000,-1.398429,-0.000000,10.578561,-15.426903,-44.205257
2650.340000,7.840000,2.584311,0.494262,11.179768,0.000000,-1.399542,-0.000000,9.959222,-15.426903,-44.348896
2650.350000,7.850000,2.742338,0.491032,11.112347,0.000000,-1.401690,0.000000,9.337196,-15.426903,-44.484013
2650.360000,7.860000,2.890540,0.486201,11.028204,0.000000,-1.404720,0.000000,8.712163,-15.426903,-44.610637
2650.370000,7.870000,3.027028,0.479784,10.928028,0.000000,-1.408403,-0.000000,8.083883,-15.426903,-44.728755
2650.380000,7.880000,3.150064,0.471802,10.812668,0.000000,-1.412441,-0.000000,7.452236,-15.426903,-44.838319
2650.390000,7.890000,3.258077,0.462280,10.683137,0.000000,-1.416470,-0.000000,6.817249,-15.426903,-44.939246
2650.400000,7.900000,3.349696,0.451252,10.540589,0.000000,-1.420067,0.000000,6.179130,-15.426903,-45.031423
2650.410000,7.910000,3.423768,0.438751,10.386316,0.000000,-1.422753,0.000000,5.538294,-15.426903,-45.114720
2650.420000,7.920000,3.479384,0.424819,10.221733,0.000000,-1.424007,0.000000,4.895386,-15.426903,-45.189002
2650.430000,7.930000,3.515894,0.409501,10.048364,0.000000,-1.423269,0.000000,4.251304,-15.426903,-45.254139
2650.440000,7.940000,3.532924,0.392848,9.867825,0.000000,-1.419951,-0.000000,3.607211,-15.426903,-45.310029
2650.450000,7.950000,3.530386,0.374913,9.681817,0.000000,-1.413446,-0.000000,2.964546,-15.426903,-45.356611
2650.460000,7.960000,3.508487,0.355756,9.492104,0.000000,-1.403140,-0.000000,2.325032,-15.426903,-45.393886
2650.470000,7.970000,3.467729,0.335438,9.300507,0.000000,-1.388420,0.000000,1.690671,-15.426903,-45.421936
2650.480000,7.980000,3.408909,0.314026,9.108885,0.000000,-1.368685,0.000000,1.063742,-15.426903,-45.440941
2650.490000,7.990000,3.333105,0.291589,8.919125,0.000000,-1.343357,-0.000000,0.446788,-15.426903,-45.451194
2650.500000,8.000000,3.241664,0.268202,8.733132,0.000000,-1.311891,-0.000000,-0.157400,-15.426903,-45.453118
2650.510000,8.010000,3.136182,0.243940,8.552817,0.000000,-1.273785,0.000000,-0.745803,-15.426903,-45.447271
2650.520000,8.020000,3.018475,0.218882,8.380086,0.000000,-1.228590,0.000000,-1.315205,-15.426903,-45.434358
2650.530000,8.030000,2.890549,0.193110,8.216832,0.000000,-1.175916,-0.000000,-1.862215,-15.426903,-45.415227
2650.540000,8.040000,2.754560,0.166708,8.064925,0.000000,-1.115446,-0.000000,-2.383307,-15.426903,-45.390864
2650.550000,8.050000,2.612776,0.139762,7.926200,0.000000,-1.046937,0.000000,-2.874853,-15.426903,-45.362384
2650.560000,8.060000,2.467530,0.112361,7.802449,0.000000,-0.970231,0.000000,-3.333160,-15.426903,-45.331013
2650.570000,8.070000,2.321172,0.084593,7.695404,0.000000,-0.885260,-0.000000,-3.754510,-15.426903,-45.298061
2650.580000,8.080000,2.176024,0.056549,7.606726,0.000000,-0.792048,0.000000,-4.135201,-15.426903,-45.264896
2650.590000,8.090000,2.034329,0.028321,7.537984,0.000000,-0.690715,-0.000000,-4.471581,-15.426903,-45.232904
2650.600000,8.100000,1.898205,-0.000000,7.490637,0.000000,-0.581482,-0.000000,-4.760094,-15.426903,-45.203453
2650.610000,8.110000,1.769598,-0.028321,7.466011,0.000000,-0.464668,0.000000,-4.997312,-15.426903,-45.177844
2650.620000,8.120000,1.650245,-0.056549,7.465267,0.000000,-0.340691,-0.000000,-5.179976,-15.426903,-45.157264
2650.630000,8.130000,1.541631,-0.084593,7.489375,0.000000,-0.210065,0.000000,-5.305028,-15.426903,-45.142744
2650.640000,8.140000,1.444964,-0.112361,7.539077,0.000000,-0.073401,-0.000000,-5.369649,-15.426903,-45.135103
2650.650000,8.150000,1.361149,-0.139762,7.614854,0.000000,0.068603,0.000000,-5.371293,-15.426903,-45.134908
2650.660000,8.160000,1.290769,-0.166708,7.716885,0.000000,0.215165,0.000000,-5.307716,-15.426903,-45.142428
2650.670000,8.170000,1.234081,-0.193110,7.845016,0.000000,0.365424,0.000000,-5.177015,-15.426903,-45.157604
2650.680000,8.180000,1.191014,-0.218882,7.998718,0.000000,0.518453,-0.000000,-4.977654,-15.426903,-45.180014
2650.690000,8.190000,1.161180,-0.243940,8.177062,0.000000,0.673259,-0.000000,-4.708501,-15.426903,-45.208856
2650.700000,8.200000,1.143889,-0.268202,8.378686,0.000000,0.828803,-0.000000,-4.368859,-15.426903,-45.242941
2650.710000,8.210000,1.138185,-0.291589,8.601786,0.000000,0.984003,-0.000000,-3.958495,-15.426903,-45.280691
2650.720000,8.220000,1.142875,-0.314026,8.844099,0.000000,1.137748,0.000000,-3.477672,-15.426903,-45.320155
2650.730000,8.230000,1.156572,-0.335438,9.102913,0.000000,1.288907,-0.000000,-2.927176,-15.426903,-45.359038
2650.740000,8.240000,1.177754,-0.355756,9.375077,0.000000,1.436346,-0.000000,-2.308344,-15.426903,-45.394738
2650.750000,8.250000,1.204807,-0.374913,9.657039,0.000000,1.578935,0.000000,-1.623077,-15.426903,-45.424402
2650.760000,8.260000,1.236092,-0.392848,9.944889,0.000000,1.715562,-0.000000,-0.873864,-15.426903,-45.444989
2650.770000,8.270000,1.269994,-0.409501,10.234418,0.000000,1.845147,-0.000000,-0.063783,-15.426903,-45.453345
2650.780000,8.280000,1.304985,-0.424819,10.521198,0.000000,1.966649,0.000000,0.803499,-15.426903,-45.446288
2650.790000,8.290000,1.339674,-0.438751,10.800668,0.000000,2.079082,-0.000000,1.723736,-15.426903,-45.420694
2650.800000,8.300000,1.372848,-0.451252,11.068235,0.000000,2.181525,-0.000000,2.692128,-15.426903,-45.373595
2650.810000,8.310000,1.403513,-0.462280,11.319379,0.000000,2.273130,-0.000000,3.703352,-15.426903,-45.302272
2650.820000,8.320000,1.430917,-0.471802,11.549770,0.000000,2.353133,0.000000,4.751614,-15.426903,-45.204345
2650.830000,8.330000,1.454562,-0.479784,11.755376,0.000000,2.420865,-0.000000,5.830706,-15.426903,-45.077861
2650.840000,8.340000,1.474207,-0.486201,11.932574,0.000000,2.475752,0.000000,6.934076,-15.426903,-44.921368
2650.850000,8.350000,1.489855,-0.491032,12.078252,0.000000,2.517332,0.000000,8.054907,-15.426903,-44.733982
2650.860000,8.360000,1.501727,-0.494262,12.189897,0.000000,2.545250,0.000000,9.186211,-15.426903,-44.515438
2650.870000,8.370000,1.510227,-0.495879,12.265668,0.000000,2.559269,-0.000000,10.320916,-15.426903,-44.266120
2650.880000,8.380000,1.515899,-0.495879,12.304451,0.000000,2.559269,-0.000000,11.451970,-15.426903,-43.987078
2650.890000,8.390000,1.519372,-0.494262,12.305890,0.000000,2.545250,-0.000000,12.572432,-15.426903,-43.680026
2650.900000,8.400000,1.521313,-0.491032,12.270401,0.000000,2.517332,0.000000,13.675569,-15.426903,-43.347312
2650.910000,8.410000,1.522367,-0.486201,12.199153,0.000000,2.475752,0.000000,14.754943,-15.426903,-42.991887
2650.920000,8.420000,1.523107,-0.479784,12.094033,0.000000,2.420865,-0.000000,15.804491,-15.426903,-42.617235
2650.930000,8.430000,1.523990,-0.471802,11.957595,0.000000,2.353133,-0.000000,16.818589,-15.426903,-42.227310
2650.940000,8.440000,1.525320,-0.462280,11.792973,0.000000,2.273130,-0.000000,17.792114,-15.426903,-41.826443
2650.950000,8.450000,1.527219,-0.451252,11.603801,0.000000,2.181525,-0.000000,18.720476,-15.426903,-41.419252
2650.960000,8.460000,1.529614,-0.438751,11.394101,0.000000,2.079082,0.000000,19.599653,-15.426903,-41.010538
2650.970000,8.470000,1.532233,-0.424819,11.168182,0.000000,1.966649,0.000000,20.426200,-15.426903,-40.605185
2650.980000,8.480000,1.534615,-0.409501,10.930518,0.000000,1.845147,-0.000000,21.197247,-15.426903,-40.208051
2650.990000,8.490000,1.536132,-0.392848,10.685644,0.000000,1.715562,-0.000000,21.910488,-15.426903,-39.823877
2651.000000,8.500000,1.536015,-0.374913,10.438044,0.000000,1.578935,0.000000,22.564155,-15.426903,-39.457186
2651.010000,8.510000,1.533399,-0.355756,10.192056,0.000000,1.436346,0.000000,23.156993,-15.426903,-39.112202
2651.020000,8.520000,1.527361,-0.335438,9.951783,0.000000,1.288907,-0.000000,23.688212,-15.426903,-38.792774
2651.030000,8.530000,1.516974,-0.314026,9.721015,0.000000,1.137748,-0.000000,24.157455,-15.426903,-38.502312
2651.040000,8.540000,1.501353,-0.291589,9.503177,0.000000,0.984003,0.000000,24.564750,-15.426903,-38.243741
2651.050000,8.550000,1.479702,-0.268202,9.301276,0.000000,0.828803,-0.000000,24.910468,-15.426903,-38.019459
2651.060000,8.560000,1.451365,-0.243940,9.117871,0.000000,0.673259,-0.000000,25.195284,-15.426903,-37.831314
2651.070000,8.570000,1.415858,-0.218882,8.955061,0.000000,0.518453,0.000000,25.420138,-15.426903,-37.680596
2651.080000,8.580000,1.372908,-0.193110,8.814478,0.000000,0.365424,0.000000,25.586200,-15.426903,-37.568033
2651.090000,8.590000,1.322477,-0.166708,8.697295,0.000000,0.215165,-0.000000,25.694845,-15.426903,-37.493808
2651.100000,8.600000,1.264776,-0.139762,8.604241,0.000000,0.068603,-0.000000,25.747629,-15.426903,-37.457580
2651.110000,8.610000,1.200276,-0.112361,8.535632,0.000000,-0.073401,0.000000,25.746265,-15.426903,-37.458518
2651.120000,8.620000,1.129706,-0.084593,8.491396,0.000000,-0.210065,0.000000,25.692612,-15.426903,-37.495338
2651.130000,8.630000,1.054042,-0.056549,8.471113,0.000000,-0.340691,0.000000,25.588663,-15.426903,-37.566355
2651.140000,8.640000,0.974491,-0.028321,8.474047,0.000000,-0.464668,0.000000,25.436531,-15.426903,-37.669531
2651.150000,8.650000,0.892462,-0.000000,8.499190,0.000000,-0.581482,-0.000000,25.238444,-15.426903,-37.802535
2651.160000,8.660000,0.809537,0.028321,8.545295,0.000000,-0.690715,-0.000000,24.996735,-15.426903,-37.962796
2651.170000,8.670000,0.727432,0.056549,8.610915,0.000000,-0.792048,-0.000000,24.713833,-15.426903,-38.147571
2651.180000,8.680000,0.647956,0.084593,8.694439,0.000000,-0.885260,-0.000000,24.392251,-15.426903,-38.353993
2651.190000,8.690000,0.572967,0.112361,8.794123,0.000000,-0.970231,0.000000,24.034575,-15.426903,-38.579138
2651.200000,8.700000,0.504326,0.139762,8.908118,0.000000,-1.046937,0.000000,23.643449,-15.426903,-38.820072
2651.210000,8.710000,0.443850,0.166708,9.034499,0.000000,-1.115446,0.000000,23.221552,-15.426903,-39.073907
2651.220000,8.720000,0.393273,0.193110,9.171287,0.000000,-1.175916,-0.000000,22.771585,-15.426903,-39.337839
2651.230000,8.730000,0.354198,0.218882,9.316473,0.000000,-1.228590,-0.000000,22.296241,-15.426903,-39.609195
2651.240000,8.740000,0.328062,0.243940,9.468033,0.000000,-1.273785,0.000000,21.798183,-15.426903,-39.885460
2651.250000,8.750000,0.316104,0.268202,9.623948,0.000000,-1.311891,-0.000000,21.280016,-15.426903,-40.164308
2651.260000,8.760000,0.319331,0.291589,9.782218,0.000000,-1.343357,-0.000000,20.744262,-15.426903,-40.443618
2651.270000,8.770000,0.338501,0.314026,9.940876,0.000000,-1.368685,0.000000,20.193333,-15.426903,-40.721493
2651.280000,8.780000,0.374104,0.335438,10.098001,0.000000,-1.388420,-0.000000,19.629503,-15.426903,-40.996259
2651.290000,8.790000,0.426352,0.355756,10.251728,0.000000,-1.403140,0.000000,19.054886,-15.426903,-41.266475
2651.300000,8.800000,0.495174,0.374913,10.400261,0.000000,-1.413446,0.000000,18.471417,-15.426903,-41.530921
2651.310000,8.810000,0.580218,0.392848,10.541882,0.000000,-1.419951,-0.000000,17.880831,-15.426903,-41.788594
2651.320000,8.820000,0.680858,0.409501,10.674964,0.000000,-1.423269,0.000000,17.284650,-15.426903,-42.038691
2651.330000,8.830000,0.796209,0.424819,10.797980,0.000000,-1.424007,0.000000,16.684178,-15.426903,-42.280597
2651.340000,8.840000,0.925136,0.438751,10.909513,0.000000,-1.422753,-0.000000,16.080493,-15.426903,-42.513861
2651.350000,8.850000,1.066284,0.451252,11.008267,0.000000,-1.420067,0.000000,15.474448,-15.426903,-42.738181
2651.360000,8.860000,1.218093,0.462280,11.093076,0.000000,-1.416470,0.000000,14.866679,-15.426903,-42.953376
2651.370000,8.870000,1.378827,0.471802,11.162914,0.000000,-1.412441,-0.000000,14.257613,-15.426903,-43.159369
2651.380000,8.880000,1.546603,0.479784,11.216906,0.000000,-1.408403,-0.000000,13.647486,-15.426903,-43.356162
2651.390000,8.890000,1.719418,0.486201,11.254334,0.000000,-1.404720,0.000000,13.036362,-15.426903,-43.543816
2651.400000,8.900000,1.895176,0.491032,11.274646,0.000000,-1.401690,0.000000,12.424155,-15.426903,-43.722432
2651.410000,8.910000,2.071726,0.494262,11.277459,0.000000,-1.399542,0.000000,11.810661,-15.426903,-43.892129
2651.420000,8.920000,2.246882,0.495879,11.262570,0.000000,-1.398429,0.000000,11.195581,-15.426903,-44.053032
2651.430000,8.930000,2.418461,0.495879,11.229955,0.000000,-1.398429,-0.000000,10.578561,-15.426903,-44.205257
2651.440000,8.940000,2.584311,0.494262,11.179768,0.000000,-1.399542,-0.000000,9.959222,-15.426903,-44.348896
2651.450000,8.950000,2.742338,0.491032,11.112347,0.000000,-1.401690,-0.000000,9.337196,-15.426903,-44.484013
2651.460000,8.960000,2.890540,0.486201,11.028204,0.000000,-1.404720,0.000000,8.712163,-15.426903,-44.610637
2651.470000,8.970000,3.027028,0.479784,10.928028,0.000000,-1.408403,0.000000,8.083883,-15.426903,-44.728755
2651.480000,8.980000,3.150064,0.471802,10.812668,0.000000,-1.412441,-0.000000,7.452236,-15.426903,-44.838319
2651.490000,8.990000,3.258077,0.462280,10.683137,0.000000,-1.416470,0.000000,6.817249,-15.426903,-44.939246
2651.500000,9.000000,3.349696,0.451252,10.540589,0.000000,-1.420067,0.000000,6.179130,-15.426903,-45.031423
2651.510000,9.010000,3.423768,0.438751,10.386316,0.000000,-1.422753,-0.000000,5.538294,-15.426903,-45.114720
2651.520000,9.020000,3.479384,0.424819,10.221733,0.000000,-1.424007,0.000000,4.895386,-15.426903,-45.189002
2651.530000,9.030000,3.515894,0.409501,10.048364,0.000000,-1.423269,-0.000000,4.251304,-15.426903,-45.254139
2651.540000,9.040000,3.532924,0.392848,9.867825,0.000000,-1.419951,0.000000,3.607211,-15.426903,-45.310029
2651.550000,9.050000,3.530386,0.374913,9.681817,0.000000,-1.413446,0.000000,2.964546,-15.426903,-45.356611
2651.560000,9.060000,3.508487,0.355756,9.492104,0.000000,-1.403140,-0.000000,2.325032,-15.426903,-45.393886
2651.570000,9.070000,3.467729,0.335438,9.300507,0.000000,-1.388420,-0.000000,1.690671,-15.426903,-45.421936
2651.580000,9.080000,3.408909,0.314026,9.108885,0.000000,-1.368685,0.000000,1.063742,-15.426903,-45.440941
2651.590000,9.090000,3.333105,0.291589,8.919125,0.000000,-1.343357,0.000000,0.446788,-15.426903,-45.451194
2651.600000,9.100000,3.241664,0.268202,8.733132,0.000000,-1.311891,-0.000000,-0.157400,-15.426903,-45.453118
2651.610000,9.110000,3.136182,0.243940,8.552817,0.000000,-1.273785,-0.000000,-0.745803,-15.426903,-45.447271
2651.620000,9.120000,3.018475,0.218882,8.380086,0.000000,-1.228590,0.000000,-1.315205,-15.426903,-45.434358
2651.630000,9.130000,2.890549,0.193110,8.216832,0.000000,-1.175916,-0.000000,-1.862215,-15.426903,-45.415227
2651.640000,9.140000,2.754560,0.166708,8.064925,0.000000,-1.115446,-0.000000,-2.383307,-15.426903,-45.390864
2651.650000,9.150000,2.612776,0.139762,7.926200,0.000000,-1.046937,0.000000,-2.874853,-15.426903,-45.362384
2651.660000,9.160000,2.467530,0.112361,7.802449,0.000000,-0.970231,0.000000,-3.333160,-15.426903,-45.331013
2651.670000,9.170000,2.321172,0.084593,7.695404,0.000000,-0.885260,0.000000,-3.754510,-15.426903,-45.298061
2651.680000,9.180000,2.176024,0.056549,7.606726,0.000000,-0.792048,-0.000000,-4.135201,-15.426903,-45.264896
2651.690000,9.190000,2.034329,0.028321,7.537984,0.000000,-0.690715,-0.000000,-4.471581,-15.426903,-45.232904
2651.700000,9.200000,1.898205,0.000000,7.490637,0.000000,-0.581482,0.000000,-4.760094,-15.426903,-45.203453
2651.710000,9.210000,1.769598,-0.028321,7.466011,0.000000,-0.464668,0.000000,-4.997312,-15.426903,-45.177844
2651.720000,9.220000,1.650245,-0.056549,7.465267,0.000000,-0.340691,-0.000000,-5.179976,-15.426903,-45.157264
2651.730000,9.230000,1.541631,-0.084593,7.489375,0.000000,-0.210065,0.000000,-5.305028,-15.426903,-45.142744
2651.740000,9.240000,1.444964,-0.112361,7.539077,0.000000,-0.073401,-0.000000,-5.369649,-15.426903,-45.135103
2651.750000,9.250000,1.361149,-0.139762,7.614854,0.000000,0.068603,-0.000000,-5.371293,-15.426903,-45.134908
2651.760000,9.260000,1.290769,-0.166708,7.716885,0.000000,0.215165,0.000000,-5.307716,-15.426903,-45.142428
2651.770000,9.270000,1.234081,-0.193110,7.845016,0.000000,0.365424,-0.000000,-5.177015,-15.426903,-45.157604
2651.780000,9.280000,1.191014,-0.218882,7.998718,0.000000,0.518453,-0.000000,-4.977654,-15.426903,-45.180014
2651.790000,9.290000,1.161180,-0.243940,8.177062,0.000000,0.673259,-0.000000,-4.708501,-15.426903,-45.208856
2651.800000,9.300000,1.143889,-0.268202,8.378686,0.000000,0.828803,-0.000000,-4.368859,-15.426903,-45.242941
2651.810000,9.310000,1.138185,-0.291589,8.601786,0.000000,0.984003,-0.000000,-3.958495,-15.426903,-45.280691
2651.820000,9.320000,1.142875,-0.314026,8.844099,0.000000,1.137748,-0.000000,-3.477672,-15.426903,-45.320155
2651.830000,9.330000,1.156572,-0.335438,9.102913,0.000000,1.288907,0.000000,-2.927176,-15.426903,-45.359038
2651.840000,9.340000,1.177754,-0.355756,9.375077,0.000000,1.436346,0.000000,-2.308344,-15.426903,-45.394738
2651.850000,9.350000,1.204807,-0.374913,9.657039,0.000000,1.578935,0.000000,-1.623077,-15.426903,-45.424402
2651.860000,9.360000,1.236092,-0.392848,9.944889,0.000000,1.715562,0.000000,-0.873864,-15.426903,-45.444989
2651.870000,9.370000,1.269994,-0.409501,10.234418,0.000000,1.845147,0.000000,-0.063783,-15.426903,-45.453345
2651.880000,9.380000,1.304985,-0.424819,10.521198,0.000000,1.966649,0.000000,0.803499,-15.426903,-45.446288
2651.890000,9.390000,1.339674,-0.438751,10.800668,0.000000,2.079082,-0.000000,1.723736,-15.426903,-45.420694
2651.900000,9.400000,1.372848,-0.451252,11.068235,0.000000,2.181525,-0.000000,2.692128,-15.426903,-45.373595
2651.910000,9.410000,1.403513,-0.462280,11.319379,0.000000,2.273130,0.000000,3.703352,-15.426903,-45.302272
2651.920000,9.420000,1.430917,-0.471802,11.549770,0.000000,2.353133,0.000000,4.751614,-15.426903,-45.204345
2651.930000,9.430000,1.454562,-0.479784,11.755376,0.000000,2.420865,-0.000000,5.830706,-15.426903,-45.077861
2651.940000,9.440000,1.474207,-0.486201,11.932574,0.000000,2.475752,-0.000000,6.934076,-15.426903,-44.921368
2651.950000,9.450000,1.489855,-0.491032,12.078252,0.000000,2.517332,0.000000,8.054907,-15.426903,-44.733982
2651.960000,9.460000,1.501727,-0.494262,12.189897,0.000000,2.545250,0.000000,9.186211,-15.426903,-44.515438
2651.970000,9.470000,1.510227,-0.495879,12.265668,0.000000,2.559269,-0.000000,10.320916,-15.426903,-44.266120
2651.980000,9.480000,1.515899,-0.495879,12.304451,0.000000,2.559269,0.000000,11.451970,-15.426903,-43.987078
2651.990000,9.490000,1.519372,-0.494262,12.305890,0.000000,2.545250,-0.000000,12.572432,-15.426903,-43.680026
2652.000000,9.500000,1.521313,-0.491032,12.270401,0.000000,2.517332,0.000000,13.675569,-15.426903,-43.347312
2652.010000,9.510000,1.522367,-0.486201,12.199153,0.000000,2.475752,0.000000,14.754943,-15.426903,-42.991887
2652.020000,9.520000,1.523107,-0.479784,12.094033,0.000000,2.420865,0.000000,15.804491,-15.426903,-42.617235
2652.030000,9.530000,1.523990,-0.471802,11.957595,0.000000,2.353133,0.000000,16.818589,-15.426903,-42.227310
2652.040000,9.540000,1.525320,-0.462280,11.792973,0.000000,2.273130,-0.000000,17.792114,-15.426903,-41.826443
2652.050000,9.550000,1.527219,-0.451252,11.603801,0.000000,2.181525,-0.000000,18.720476,-15.426903,-41.419252
2652.060000,9.560000,1.529614,-0.438751,11.394101,0.000000,2.079082,0.000000,19.599653,-15.426903,-41.010538
2652.070000,9.570000,1.532233,-0.424819,11.168182,0.000000,1.966649,0.000000,20.426200,-15.426903,-40.605185
2652.080000,9.580000,1.534615,-0.409501,10.930518,0.000000,1.845147,0.000000,21.197247,-15.426903,-40.208051
2652.090000,9.590000,1.536132,-0.392848,10.685644,0.000000,1.715562,-0.000000,21.910488,-15.426903,-39.823877
2652.100000,9.600000,1.536015,-0.374913,10.438044,0.000000,1.578935,-0.000000,22.564155,-15.426903,-39.457186
2652.110000,9.610000,1.533399,-0.355756,10.192056,0.000000,1.436346,0.000000,23.156993,-15.426903,-39.112202
2652.120000,9.620000,1.527361,-0.335438,9.951783,0.000000,1.288907,-0.000000,23.688212,-15.426903,-38.792774
2652.130000,9.630000,1.516974,-0.314026,9.721015,0.000000,1.137748,-0.000000,24.157455,-15.426903,-38.502312
2652.140000,9.640000,1.501353,-0.291589,9.503177,0.000000,0.984003,0.000000,24.564750,-15.426903,-38.243741
2652.150000,9.650000,1.479702,-0.268202,9.301276,0.000000,0.828803,-0.000000,24.910468,-15.426903,-38.019459
2652.160000,9.660000,1.451365,-0.243940,9.117871,0.000000,0.673259,-0.000000,25.195284,-15.426903,-37.831314
2652.170000,9.670000,1.415858,-0.218882,8.955061,0.000000,0.518453,0.000000,25.420138,-15.426903,-37.680596
2652.180000,9.680000,1.372908,-0.193110,8.814478,0.000000,0.365424,0.000000,25.586200,-15.426903,-37.568033
2652.190000,9.690000,1.322477,-0.166708,8.697295,0.000000,0.215165,-0.000000,25.694845,-15.426903,-37.493808
2652.200000,9.700000,1.264776,-0.139762,8.604241,0.000000,0.068603,-0.000000,25.747629,-15.426903,-37.457580
2652.210000,9.710000,1.200276,-0.112361,8.535632,0.000000,-0.073401,-0.000000,25.746265,-15.426903,-37.458518
2652.220000,9.720000,1.129706,-0.084593,8.491396,0.000000,-0.210065,0.000000,25.692612,-15.426903,-37.495338
2652.230000,9.730000,1.054042,-0.056549,8.471113,0.000000,-0.340691,0.000000,25.588663,-15.426903,-37.566355
2652.240000,9.740000,0.974491,-0.028321,8.474047,0.000000,-0.464668,0.000000,25.436531,-15.426903,-37.669531
2652.250000,9.750000,0.892462,0.000000,8.499190,0.000000,-0.581482,-0.000000,25.238444,-15.426903,-37.802535
2652.260000,9.760000,0.809537,0.028321,8.545295,0.000000,-0.690715,0.000000,24.996735,-15.426903,-37.962796
2652.270000,9.770000,0.727432,0.056549,8.610915,0.000000,-0.792048,0.000000,24.713833,-15.426903,-38.147571
2652.280000,9.780000,0.647956,0.084593,8.694439,0.000000,-0.885260,-0.000000,24.392251,-15.426903,-38.353993
2652.290000,9.790000,0.572967,0.112361,8.794123,0.000000,-0.970231,0.000000,24.034575,-15.426903,-38.579138
2652.300000,9.800000,0.504326,0.139762,8.908118,0.000000,-1.046937,0.000000,23.643449,-15.426903,-38.820072
2652.310000,9.810000,0.443850,0.166708,9.034499,0.000000,-1.115446,0.000000,23.221552,-15.426903,-39.073907
2652.320000,9.820000,0.393273,0.193110,9.171287,0.000000,-1.175916,-0.000000,22.771585,-15.426903,-39.337839
2652.330000,9.830000,0.354198,0.218882,9.316473,0.000000,-1.228590,-0.000000,22.296241,-15.426903,-39.609195
2652.340000,9.840000,0.328062,0.243940,9.468033,0.000000,-1.273785,0.000000,21.798183,-15.426903,-39.885460
2652.350000,9.850000,0.316104,0.268202,9.623948,0.000000,-1.311891,-0.000000,21.280016,-15.426903,-40.164308
2652.360000,9.860000,0.319331,0.291589,9.782218,0.000000,-1.343357,-0.000000,20.744262,-15.426903,-40.443618
2652.370000,9.870000,0.338501,0.314026,9.940876,0.000000,-1.368685,0.000000,20.193333,-15.426903,-40.721493
2652.380000,9.880000,0.374104,0.335438,10.098001,0.000000,-1.388420,-0.000000,19.629503,-15.426903,-40.996259
2652.390000,9.890000,0.426352,0.355756,10.251728,0.000000,-1.403140,0.000000,19.054886,-15.426903,-41.266475
2652.400000,9.900000,0.495174,0.374913,10.400261,0.000000,-1.413446,0.000000,18.471417,-15.426903,-41.530921
2652.410000,9.910000,0.580218,0.392848,10.541882,0.000000,-1.419951,-0.000000,17.880831,-15.426903,-41.788594
2652.420000,9.920000,0.680858,0.409501,10.674964,0.000000,-1.423269,0.000000,17.284650,-15.426903,-42.038691
2652.430000,9.930000,0.796209,0.424819,10.797980,0.000000,-1.424007,0.000000,16.684178,-15.426903,-42.280597
2652.440000,9.940000,0.925136,0.438751,10.909513,0.000000,-1.422753,-0.000000,16.080493,-15.426903,-42.513861
2652.450000,9.950000,1.066284,0.451252,11.008267,0.000000,-1.420067,0.000000,15.474448,-15.426903,-42.738181
2652.460000,9.960000,1.218093,0.462280,11.093076,0.000000,-1.416470,0.000000,14.866679,-15.426903,-42.953376
2652.470000,9.970000,1.378827,0.471802,11.162914,0.000000,-1.412441,-0.000000,14.257613,-15.426903,-43.159369
2652.480000,9.980000,1.546603,0.479784,11.216906,0.000000,-1.408403,-0.000000,13.647486,-15.426903,-43.356162
2652.490000,9.990000,1.719418,0.486201,11.254334,0.000000,-1.404720,0.000000,13.036362,-15.426903,-43.543816
2652.500000,10.000000,1.895176,0.491032,11.274646,0.000000,-1.401690,0.000000,12.424155,-15.426903,-43.722432
2652.510000,10.010000,2.071726,0.494262,11.277459,0.000000,-1.399542,-0.000000,11.810661,-15.426903,-43.892129
2652.520000,10.020000,2.246882,0.495879,11.262570,0.000000,-1.398429,-0.000000,11.195581,-15.426903,-44.053032
2652.530000,10.030000,2.418461,0.495879,11.229955,0.000000,-1.398429,-0.000000,10.578561,-15.426903,-44.205257
2652.540000,10.040000,2.584311,0.494262,11.179768,0.000000,-1.399542,-0.000000,9.959222,-15.426903,-44.348896
2652.550000,10.050000,2.742338,0.491032,11.112347,0.000000,-1.401690,0.000000,9.337196,-15.426903,-44.484013
2652.560000,10.060000,2.890540,0.486201,11.028204,0.000000,-1.404720,-0.000000,8.712163,-15.426903,-44.610637
2652.570000,10.070000,3.027028,0.479784,10.928028,0.000000,-1.408403,-0.000000,8.083883,-15.426903,-44.728755
2652.580000,10.080000,3.150064,0.471802,10.812668,0.000000,-1.412441,-0.000000,7.452236,-15.426903,-44.838319
2652.590000,10.090000,3.258077,0.462280,10.683137,0.000000,-1.416470,0.000000,6.817249,-15.426903,-44.939246
2652.600000,10.100000,3.349696,0.451252,10.540589,0.000000,-1.420067,0.000000,6.179130,-15.426903,-45.031423
2652.610000,10.110000,3.423768,0.438751,10.386316,0.000000,-1.422753,-0.000000,5.538294,-15.426903,-45.114720
2652.620000,10.120000,3.479384,0.424819,10.221733,0.000000,-1.424007,0.000000,4.895386,-15.426903,-45.189002
2652.630000,10.130000,3.515894,0.409501,10.048364,0.000000,-1.423269,0.000000,4.251304,-15.426903,-45.254139
2652.640000,10.140000,3.532924,0.392848,9.867825,0.000000,-1.419951,-0.000000,3.607211,-15.426903,-45.310029
2652.650000,10.150000,3.530386,0.374913,9.681817,0.000000,-1.413446,-0.000000,2.964546,-15.426903,-45.356611
2652.660000,10.160000,3.508487,0.355756,9.492104,0.000000,-1.403140,-0.000000,2.325032,-15.426903,-45.393886
2652.670000,10.170000,3.467729,0.335438,9.300507,0.000000,-1.388420,-0.000000,1.690671,-15.426903,-45.421936
2652.680000,10.180000,3.408909,0.314026,9.108885,0.000000,-1.368685,0.000000,1.063742,-15.426903,-45.440941
2652.690000,10.190000,3.333105,0.291589,8.919125,0.000000,-1.343357,0.000000,0.446788,-15.426903,-45.451194
2652.700000,10.200000,3.241664,0.268202,8.733132,0.000000,-1.311891,0.000000,-0.157400,-15.426903,-45.453118
2652.710000,10.210000,3.136182,0.243940,8.552817,0.000000,-1.273785,-0.000000,-0.745803,-15.426903,-45.447271
2652.720000,10.220000,3.018475,0.218882,8.380086,0.000000,-1.228590,0.000000,-1.315205,-15.426903,-45.434358
2652.730000,10.230000,2.890549,0.193110,8.216832,0.000000,-1.175916,-0.000000,-1.862215,-15.426903,-45.415227
2652.740000,10.240000,2.754560,0.166708,8.064925,0.000000,-1.115446,-0.000000,-2.383307,-15.426903,-45.390864
2652.750000,10.250000,2.612776,0.139762,7.926200,0.000000,-1.046937,0.000000,-2.874853,-15.426903,-45.362384
2652.760000,10.260000,2.467530,0.112361,7.802449,0.000000,-0.970231,0.000000,-3.333160,-15.426903,-45.331013
2652.770000,10.270000,2.321172,0.084593,7.695404,0.000000,-0.885260,0.000000,-3.754510,-15.426903,-45.298061
2652.780000,10.280000,2.176024,0.056549,7.606726,0.000000,-0.792048,-0.000000,-4.135201,-15.426903,-45.264896
2652.790000,10.290000,2.034329,0.028321,7.537984,0.000000,-0.690715,0.000000,-4.471581,-15.426903,-45.232904
2652.800000,10.300000,1.898205,0.000000,7.490637,0.000000,-0.581482,0.000000,-4.760094,-15.426903,-45.203453
2652.810000,10.310000,1.769598,-0.028321,7.466011,0.000000,-0.464668,-0.000000,-4.997312,-15.426903,-45.177844
2652.820000,10.320000,1.650245,-0.056549,7.465267,0.000000,-0.340691,-0.000000,-5.179976,-15.426903,-45.157264
2652.830000,10.330000,1.541631,-0.084593,7.489375,0.000000,-0.210065,0.000000,-5.305028,-15.426903,-45.142744
2652.840000,10.340000,1.444964,-0.112361,7.539077,0.000000,-0.073401,-0.000000,-5.369649,-15.426903,-45.135103
2652.850000,10.350000,1.361149,-0.139762,7.614854,0.000000,0.068603,0.000000,-5.371293,-15.426903,-45.134908
2652.860000,10.360000,1.290769,-0.166708,7.716885,0.000000,0.215165,0.000000,-5.307716,-15.426903,-45.142428
2652.870000,10.370000,1.234081,-0.193110,7.845016,0.000000,0.365424,0.000000,-5.177015,-15.426903,-45.157604
2652.880000,10.380000,1.191014,-0.218882,7.998718,0.000000,0.518453,-0.000000,-4.977654,-15.426903,-45.180014
2652.890000,10.390000,1.161180,-0.243940,8.177062,0.000000,0.673259,-0.000000,-4.708501,-15.426903,-45.208856
2652.900000,10.400000,1.143889,-0.268202,8.378686,0.000000,0.828803,0.000000,-4.368859,-15.426903,-45.242941
2652.910000,10.410000,1.138185,-0.291589,8.601786,0.000000,0.984003,-0.000000,-3.958495,-15.426903,-45.280691
2652.920000,10.420000,1.142875,-0.314026,8.844099,0.000000,1.137748,-0.000000,-3.477672,-15.426903,-45.320155
2652.930000,10.430000,1.156572,-0.335438,9.102913,0.000000,1.288907,0.000000,-2.927176,-15.426903,-45.359038
2652.940000,10.440000,1.177754,-0.355756,9.375077,0.000000,1.436346,0.000000,-2.308344,-15.426903,-45.394738
2652.950000,10.450000,1.204807,-0.374913,9.657039,0.000000,1.578935,-0.000000,-1.623077,-15.426903,-45.424402
2652.960000,10.460000,1.236092,-0.392848,9.944889,0.000000,1.715562,0.000000,-0.873864,-15.426903,-45.444989
2652.970000,10.470000,1.269994,-0.409501,10.234418,0.000000,1.845147,-0.000000,-0.063783,-15.426903,-45.453345
2652.980000,10.480000,1.304985,-0.424819,10.521198,0.000000,1.966649,0.000000,0.803499,-15.426903,-45.446288
2652.990000,10.490000,1.339674,-0.438751,10.800668,0.000000,2.079082,-0.000000,1.723736,-15.426903,-45.420694
2653.000000,10.500000,1.372848,-0.451252,11.068235,0.000000,2.181525,-0.000000,2.692128,-15.426903,-45.373595
2653.010000,10.510000,1.403513,-0.462280,11.319379,0.000000,2.273130,0.000000,3.703352,-15.426903,-45.302272
2653.020000,10.520000,1.430917,-0.471802,11.549770,0.000000,2.353133,-0.000000,4.751614,-15.426903,-45.204345
2653.030000,10.530000,1.454562,-0.479784,11.755376,0.000000,2.420865,-0.000000,5.830706,-15.426903,-45.077861
2653.040000,10.540000,1.474207,-0.486201,11.932574,0.000000,2.475752,0.000000,6.934076,-15.426903,-44.921368
2653.050000,10.550000,1.489855,-0.491032,12.078252,0.000000,2.517332,-0.000000,8.054907,-15.426903,-44.733982
2653.060000,10.560000,1.501727,-0.494262,12.189897,0.000000,2.545250,-0.000000,9.186211,-15.426903,-44.515438
2653.070000,10.570000,1.510227,-0.495879,12.265668,0.000000,2.559269,0.000000,10.320916,-15.426903,-44.266120
2653.080000,10.580000,1.515899,-0.495879,12.304451,0.000000,2.559269,0.000000,11.451970,-15.426903,-43.987078
2653.090000,10.590000,1.519372,-0.494262,12.305890,0.000000,2.545250,0.000000,12.572432,-15.426903,-43.680026
2653.100000,10.600000,1.521313,-0.491032,12.270401,0.000000,2.517332,0.000000,13.675569,-15.426903,-43.347312
2653.110000,10.610000,1.522367,-0.486201,12.199153,0.000000,2.475752,-0.000000,14.754943,-15.426903,-42.991887
2653.120000,10.620000,1.523107,-0.479784,12.094033,0.000000,2.420865,-0.000000,15.804491,-15.426903,-42.617235
2653.130000,10.630000,1.523990,-0.471802,11.957595,0.000000,2.353133,0.000000,16.818589,-15.426903,-42.227310
2653.140000,10.640000,1.525320,-0.462280,11.792973,0.000000,2.273130,-0.000000,17.792114,-15.426903,-41.826443
2653.150000,10.650000,1.527219,-0.451252,11.603801,0.000000,2.181525,-0.000000,18.720476,-15.426903,-41.419252
2653.160000,10.660000,1.529614,-0.438751,11.394101,0.000000,2.079082,0.000000,19.599653,-15.426903,-41.010538
2653.170000,10.670000,1.532233,-0.424819,11.168182,0.000000,1.966649,0.000000,20.426200,-15.426903,-40.605185
2653.180000,10.680000,1.534615,-0.409501,10.930518,0.000000,1.845147,0.000000,21.197247,-15.426903,-40.208051
2653.190000,10.690000,1.536132,-0.392848,10.685644,0.000000,1.715562,-0.000000,21.910488,-15.426903,-39.823877
2653.200000,10.700000,1.536015,-0.374913,10.438044,0.000000,1.578935,-0.000000,22.564155,-15.426903,-39.457186
2653.210000,10.710000,1.533399,-0.355756,10.192056,0.000000,1.436346,0.000000,23.156993,-15.426903,-39.112202
2653.220000,10.720000,1.527361,-0.335438,9.951783,0.000000,1.288907,-0.000000,23.688212,-15.426903,-38.792774
2653.230000,10.730000,1.516974,-0.314026,9.721015,0.000000,1.137748,-0.000000,24.157455,-15.426903,-38.502312
2653.240000,10.740000,1.501353,-0.291589,9.503177,0.000000,0.984003,0.000000,24.564750,-15.426903,-38.243741
2653.250000,10.750000,1.479702,-0.268202,9.301276,0.000000,0.828803,-0.000000,24.910468,-15.426903,-38.019459
2653.260000,10.760000,1.451365,-0.243940,9.117871,0.000000,0.673259,-0.000000,25.195284,-15.426903,-37.831314
2653.270000,10.770000,1.415858,-0.218882,8.955061,0.000000,0.518453,0.000000,25.420138,-15.426903,-37.680596
2653.280000,10.780000,1.372908,-0.193110,8.814478,0.000000,0.365424,0.000000,25.586200,-15.426903,-37.568033
2653.290000,10.790000,1.322477,-0.166708,8.697295,0.000000,0.215165,-0.000000,25.694845,-15.426903,-37.493808
2653.300000,10.800000,1.264776,-0.139762,8.604241,0.000000,0.068603,-0.000000,25.747629,-15.426903,-37.457580
2653.310000,10.810000,1.200276,-0.112361,8.535632,0.000000,-0.073401,-0.000000,25.746265,-15.426903,-37.458518
2653.320000,10.820000,1.129706,-0.084593,8.491396,0.000000,-0.210065,0.000000,25.692612,-15.426903,-37.495338
2653.330000,10.830000,1.054042,-0.056549,8.471113,0.000000,-0.340691,0.000000,25.588663,-15.426903,-37.566355
2653.340000,10.840000,0.974491,-0.028321,8.474047,0.000000,-0.464668,0.000000,25.436531,-15.426903,-37.669531
2653.350000,10.850000,0.892462,0.000000,8.499190,0.000000,-0.581482,-0.000000,25.238444,-15.426903,-37.802535
2653.360000,10.860000,0.809537,0.028321,8.545295,0.000000,-0.690715,0.000000,24.996735,-15.426903,-37.962796
2653.370000,10.870000,0.727432,0.056549,8.610915,0.000000,-0.792048,-0.000000,24.713833,-15.426903,-38.147571
2653.380000,10.880000,0.647956,0.084593,8.694439,0.000000,-0.885260,0.000000,24.392251,-15.426903,-38.353993
2653.390000,10.890000,0.572967,0.112361,8.794123,0.000000,-0.970231,0.000000,24.034575,-15.426903,-38.579138
2653.400000,10.900000,0.504326,0.139762,8.908118,0.000000,-1.046937,-0.000000,23.643449,-15.426903,-38.820072
2653.410000,10.910000,0.443850,0.166708,9.034499,0.000000,-1.115446,0.000000,23.221552,-15.426903,-39.073907
2653.420000,10.920000,0.393273,0.193110,9.171287,0.000000,-1.175916,-0.000000,22.771585,-15.426903,-39.337839
2653.430000,10.930000,0.354198,0.218882,9.316473,0.000000,-1.228590,-0.000000,22.296241,-15.426903,-39.609195
2653.440000,10.940000,0.328062,0.243940,9.468033,0.000000,-1.273785,0.000000,21.798183,-15.426903,-39.885460
2653.450000,10.950000,0.316104,0.268202,9.623948,0.000000,-1.311891,-0.000000,21.280016,-15.426903,-40.164308
2653.460000,10.960000,0.319331,0.291589,9.782218,0.000000,-1.343357,-0.000000,20.744262,-15.426903,-40.443618
2653.470000,10.970000,0.338501,0.314026,9.940876,0.000000,-1.368685,0.000000,20.193333,-15.426903,-40.721493
2653.480000,10.980000,0.374104,0.335438,10.098001,0.000000,-1.388420,-0.000000,19.629503,-15.426903,-40.996259
2653.490000,10.990000,0.426352,0.355756,10.251728,0.000000,-1.403140,0.000000,19.054886,-15.426903,-41.266475
2653.500000,11.000000,0.495174,0.374913,10.400261,0.000000,-1.413446,0.000000,18.471417,-15.426903,-41.530921
2653.510000,11.010000,0.580218,0.392848,10.541882,0.000000,-1.419951,-0.000000,17.880831,-15.426903,-41.788594
2653.520000,11.020000,0.680858,0.409501,10.674964,0.000000,-1.423269,0.000000,17.284650,-15.426903,-42.038691
