t_native_s,t_opt_s,ax,ay,az,gx,gy,gz,mx,my,mz
2648.900000,0.000000,0.000000,0.000000,9.810000,0.000000,0.000000,0.000000,18.385067,-15.426903,-41.569219
2648.910000,0.010000,0.000000,0.000000,9.810000,0.000000,0.000000,0.000000,18.385067,-15.426903,-41.569219
2648.920000,0.020000,0.000000,0.000000,9.810000,0.000000,0.000000,0.000000,18.385067,-15.426903,-41.569219
2648.930000,0.030000,0.000000,0.000000,9.810000,0.000000,0.000000,0.000000,18.385067,-15.426903,-41.569219
2648.940000,0.040000,0.000000,0.000000,9.810000,0.000000,0.000000,0.000000,18.385067,-15.426903,-41.569219
2648.950000,0.050000,0.000000,0.000000,9.810000,0.000000,0.000000,0.000000,18.385067,-15.426903,-41.569219
2648.960000,0.060000,0.000000,0.000000,9.810000,0.000000,0.000000,0.000000,18.385067,-15.426903,-41.569219
2648.970000,0.070000,0.000000,0.000000,9.810000,0.000000,0.000000,0.000000,18.385067,-15.426903,-41.569219
2648.980000,0.080000,0.000000,0.000000,9.810000,0.000000,0.000000,0.000000,18.385067,-15.426903,-41.569219
2648.990000,0.090000,0.000000,0.000000,9.810000,0.000000,0.000000,0.000000,18.385067,-15.426903,-41.569219
2649.000000,0.100000,0.000000,0.000000,9.810000,0.000000,0.000000,0.000000,18.385067,-15.426903,-41.569219
2649.010000,0.110000,0.000000,0.000000,9.810000,0.000000,0.000000,0.000000,18.385067,-15.426903,-41.569219
2649.020000,0.120000,0.000000,0.000000,9.810000,0.000000,0.000000,0.000000,18.385067,-15.426903,-41.569219
2649.030000,0.130000,0.000000,0.000000,9.810000,0.000000,0.000000,0.000000,18.385067,-15.426903,-41.569219
2649.040000,0.140000,0.000000,0.000000,9.810000,0.000000,0.000000,0.000000,18.385067,-15.426903,-41.569219
2649.050000,0.150000,0.000000,0.000000,9.810000,0.000000,0.000000,0.000000,18.385067,-15.426903,-41.569219
2649.060000,0.160000,0.000000,0.000000,9.810000,0.000000,0.000000,0.000000,18.385067,-15.426903,-41.569219
2649.070000,0.170000,0.000000,0.000000,9.810000,0.000000,0.000000,0.000000,18.385067,-15.426903,-41.569219
2649.080000,0.180000,0.000000,0.000000,9.810000,0.000000,0.000000,0.000000,18.385067,-15.426903,-41.569219
2649.090000,0.190000,0.000000,0.000000,9.810000,0.000000,0.000000,0.000000,18.385067,-15.426903,-41.569219
2649.100000,0.200000,0.000000,0.000000,9.810000,0.000000,0.000000,0.000000,18.385067,-15.426903,-41.569219
2649.110000,0.210000,0.000000,0.000000,9.810000,0.000000,0.000000,0.000000,18.385067,-15.426903,-41.569219
2649.120000,0.220000,0.000000,0.000000,9.810000,0.000000,0.000000,0.000000,18.385067,-15.426903,-41.569219
2649.130000,0.230000,0.000000,0.000000,9.810000,0.000000,0.000000,0.000000,18.385067,-15.426903,-41.569219
2649.140000,0.240000,0.000000,0.000000,9.810000,0.000000,0.000000,0.000000,18.385067,-15.426903,-41.569219
2649.150000,0.250000,0.000000,0.000000,9.810000,0.000000,0.000000,0.000000,18.385067,-15.426903,-41.569219
2649.160000,0.260000,0.000000,0.000000,9.810000,0.000000,0.000000,0.000000,18.385067,-15.426903,-41.569219
2649.170000,0.270000,0.000000,0.000000,9.810000,0.000000,0.000000,0.000000,18.385067,-15.426903,-41.569219
2649.180000,0.280000,0.000000,0.000000,9.810000,0.000000,0.000000,0.000000,18.385067,-15.426903,-41.569219
2649.190000,0.290000,0.000000,0.000000,9.810000,0.000000,0.000000,0.000000,18.385067,-15.426903,-41.569219
2649.200000,0.300000,0.000000,0.000000,9.810000,0.000000,0.000000,0.000000,18.385067,-15.426903,-41.569219
2649.210000,0.310000,0.000000,0.000000,9.810000,0.000000,0.000000,0.000000,18.385067,-15.426903,-41.569219
2649.220000,0.320000,0.000000,0.000000,9.810000,0.000000,0.000000,0.000000,18.385067,-15.426903,-41.569219
2649.230000,0.330000,0.000000,0.000000,9.810000,0.000000,0.000000,0.000000,18.385067,-15.426903,-41.569219
2649.240000,0.340000,0.000000,0.000000,9.810000,0.000000,0.000000,0.000000,18.385067,-15.426903,-41.569219
2649.250000,0.350000,0.000000,0.000000,9.810000,0.000000,0.000000,0.000000,18.385067,-15.426903,-41.569219
2649.260000,0.360000,0.000000,0.000000,9.810000,0.000000,0.000000,0.000000,18.385067,-15.426903,-41.569219
2649.270000,0.370000,0.000000,0.000000,9.810000,0.000000,0.000000,0.000000,18.385067,-15.426903,-41.569219
2649.280000,0.380000,0.000000,0.000000,9.810000,0.000000,0.000000,0.000000,18.385067,-15.426903,-41.569219
2649.290000,0.390000,0.000000,0.000000,9.810000,0.000000,0.000000,0.000000,18.385067,-15.426903,-41.569219
2649.300000,0.400000,0.000000,0.000000,9.810000,0.000000,0.000000,0.000000,18.385067,-15.426903,-41.569219
2649.310000,0.410000,0.000000,0.000000,9.810000,0.000000,0.000000,0.000000,18.385067,-15.426903,-41.569219
2649.320000,0.420000,0.000000,0.000000,9.810000,0.000000,0.000000,0.000000,18.385067,-15.426903,-41.569219
2649.330000,0.430000,0.000000,0.000000,9.810000,0.000000,0.000000,0.000000,18.385067,-15.426903,-41.569219
2649.340000,0.440000,0.000000,0.000000,9.810000,0.000000,0.000000,0.000000,18.385067,-15.426903,-41.569219
2649.350000,0.450000,0.000000,0.000000,9.810000,0.000000,0.000000,0.000000,18.385067,-15.426903,-41.569219
2649.360000,0.460000,0.000000,0.000000,9.810000,0.000000,0.000000,0.000000,18.385067,-15.426903,-41.569219
2649.370000,0.470000,0.000000,0.000000,9.810000,0.000000,0.000000,0.000000,18.385067,-15.426903,-41.569219
2649.380000,0.480000,0.000000,0.000000,9.810000,0.000000,0.000000,0.000000,18.385067,-15.426903,-41.569219
2649.390000,0.490000,0.000000,0.000000,9.810000,0.000000,0.000000,0.000000,18.385067,-15.426903,-41.569219
2649.400000,0.500000,0.000000,0.000000,9.810000,0.000000,0.000000,0.000000,18.385067,-15.426903,-41.569219
2649.410000,0.510000,0.000000,0.000000,9.810000,0.000000,0.000000,0.000000,18.385067,-15.426903,-41.569219
2649.420000,0.520000,0.000000,0.000000,9.810000,0.000000,0.000000,0.000000,18.385067,-15.426903,-41.569219
2649.430000,0.530000,0.000000,0.000000,9.810000,0.000000,0.000000,0.000000,18.385067,-15.426903,-41.569219
2649.440000,0.540000,0.000000,0.000000,9.810000,0.000000,0.000000,0.000000,18.385067,-15.426903,-41.569219
2649.450000,0.550000,0.000000,0.000000,9.810000,0.000000,0.000000,0.000000,18.385067,-15.426903,-41.569219
2649.460000,0.560000,0.000000,0.000000,9.810000,0.000000,0.000000,0.000000,18.385067,-15.426903,-41.569219
2649.470000,0.570000,0.000000,0.000000,9.810000,0.000000,0.000000,0.000000,18.385067,-15.426903,-41.569219
2649.480000,0.580000,0.000000,0.000000,9.810000,0.000000,0.000000,0.000000,18.385067,-15.426903,-41.569219
2649.490000,0.590000,0.000000,0.000000,9.810000,0.000000,0.000000,0.000000,18.385067,-15.426903,-41.569219
2649.500000,0.600000,0.000000,0.000000,9.810000,0.000000,0.000000,0.000000,18.385067,-15.426903,-41.569219
2649.510000,0.610000,0.000000,0.000000,9.810000,0.000000,0.000000,0.000000,18.385067,-15.426903,-41.569219
2649.520000,0.620000,0.000000,0.000000,9.810000,0.000000,0.000000,0.000000,18.385067,-15.426903,-41.569219
2649.530000,0.630000,0.000000,0.000000,9.810000,0.000000,0.000000,0.000000,18.385067,-15.426903,-41.569219
2649.540000,0.640000,0.000000,0.000000,9.810000,0.000000,0.000000,0.000000,18.385067,-15.426903,-41.569219
2649.550000,0.650000,0.000000,0.000000,9.810000,0.000000,0.000000,0.000000,18.385067,-15.426903,-41.569219
2649.560000,0.660000,0.000000,0.000000,9.810000,0.000000,0.000000,0.000000,18.385067,-15.426903,-41.569219
2649.570000,0.670000,0.000000,0.000000,9.810000,0.000000,0.000000,0.000000,18.385067,-15.426903,-41.569219
2649.580000,0.680000,0.000000,0.000000,9.810000,0.000000,0.000000,0.000000,18.385067,-15.426903,-41.569219
2649.590000,0.690000,0.000000,0.000000,9.810000,0.000000,0.000000,0.000000,18.385067,-15.426903,-41.569219
2649.600000,0.700000,0.000000,0.000000,9.810000,0.000000,0.000000,0.000000,18.385067,-15.426903,-41.569219
2649.610000,0.710000,0.000000,0.000000,9.810000,0.000000,0.000000,0.000000,18.385067,-15.426903,-41.569219
2649.620000,0.720000,0.000000,0.000000,9.810000,0.000000,0.000000,0.000000,18.385067,-15.426903,-41.569219
2649.630000,0.730000,0.000000,0.000000,9.810000,0.000000,0.000000,0.000000,18.385067,-15.426903,-41.569219
2649.640000,0.740000,0.000000,0.000000,9.810000,0.000000,0.000000,0.000000,18.385067,-15.426903,-41.569219
2649.650000,0.750000,0.000000,0.000000,9.810000,0.000000,0.000000,0.000000,18.385067,-15.426903,-41.569219
2649.660000,0.760000,0.000000,0.000000,9.810000,0.000000,0.000000,0.000000,18.385067,-15.426903,-41.569219
2649.670000,0.770000,0.000000,0.000000,9.810000,0.000000,0.000000,0.000000,18.385067,-15.426903,-41.569219
2649.680000,0.780000,0.000000,0.000000,9.810000,0.000000,0.000000,0.000000,18.385067,-15.426903,-41.569219
2649.690000,0.790000,0.000000,0.000000,9.810000,0.000000,0.000000,0.000000,18.385067,-15.426903,-41.569219
2649.700000,0.800000,0.000000,0.000000,9.810000,0.000000,0.000000,0.000000,18.385067,-15.426903,-41.569219
2649.710000,0.810000,0.000000,0.000000,9.810000,0.000000,0.000000,0.000000,18.385067,-15.426903,-41.569219
2649.720000,0.820000,0.000000,0.000000,9.810000,0.000000,0.000000,0.000000,18.385067,-15.426903,-41.569219
2649.730000,0.830000,0.000000,0.000000,9.810000,0.000000,0.000000,0.000000,18.385067,-15.426903,-41.569219
2649.740000,0.840000,0.000000,0.000000,9.810000,0.000000,0.000000,0.000000,18.385067,-15.426903,-41.569219
2649.750000,0.850000,0.000000,0.000000,9.810000,0.000000,0.000000,0.000000,18.385067,-15.426903,-41.569219
2649.760000,0.860000,0.000000,0.000000,9.810000,0.000000,0.000000,0.000000,18.385067,-15.426903,-41.569219
2649.770000,0.870000,0.000000,0.000000,9.810000,0.000000,0.000000,0.000000,18.385067,-15.426903,-41.569219
2649.780000,0.880000,0.000000,0.000000,9.810000,0.000000,0.000000,0.000000,18.385067,-15.426903,-41.569219
2649.790000,0.890000,0.000000,0.000000,9.810000,0.000000,0.000000,0.000000,18.385067,-15.426903,-41.569219
2649.800000,0.900000,0.000000,0.000000,9.810000,0.000000,0.000000,0.000000,18.385067,-15.426903,-41.569219
2649.810000,0.910000,0.000000,0.000000,9.810000,0.000000,0.000000,0.000000,18.385067,-15.426903,-41.569219
2649.820000,0.920000,0.000000,0.000000,9.810000,0.000000,0.000000,0.000000,18.385067,-15.426903,-41.569219
2649.830000,0.930000,0.000000,0.000000,9.810000,0.000000,0.000000,0.000000,18.385067,-15.426903,-41.569219
2649.840000,0.940000,0.000000,0.000000,9.810000,0.000000,0.000000,0.000000,18.385067,-15.426903,-41.569219
2649.850000,0.950000,0.000000,0.000000,9.810000,0.000000,0.000000,0.000000,18.385067,-15.426903,-41.569219
2649.860000,0.960000,0.000000,0.000000,9.810000,0.000000,0.000000,0.000000,18.385067,-15.426903,-41.569219
2649.870000,0.970000,0.000000,0.000000,9.810000,0.000000,0.000000,0.000000,18.385067,-15.426903,-41.569219
2649.880000,0.980000,0.000000,0.000000,9.810000,0.000000,0.000000,0.000000,18.385067,-15.426903,-41.569219
2649.890000,0.990000,0.000000,0.000000,9.810000,0.000000,0.000000,0.000000,18.385067,-15.426903,-41.569219
2649.900000,1.000000,0.000000,0.000000,9.810000,0.000000,0.000000,0.000000,18.385067,-15.426903,-41.569219
2649.910000,1.010000,0.000000,0.000000,9.810000,0.000000,0.000000,0.000000,18.385067,-15.426903,-41.569219
2649.920000,1.020000,0.000000,0.000000,9.810000,0.000000,0.000000,0.000000,18.385067,-15.426903,-41.569219
2649.930000,1.030000,0.000000,0.000000,9.810000,0.000000,0.000000,0.000000,18.385067,-15.426903,-41.569219
2649.940000,1.040000,0.000000,0.000000,9.810000,0.000000,0.000000,0.000000,18.385067,-15.426903,-41.569219
2649.950000,1.050000,0.000000,0.000000,9.810000,0.000000,0.000000,0.000000,18.385067,-15.426903,-41.569219
2649.960000,1.060000,0.000000,0.000000,9.810000,0.000000,0.000000,0.000000,18.385067,-15.426903,-41.569219
2649.970000,1.070000,0.000000,0.000000,9.810000,0.000000,0.000000,0.000000,18.385067,-15.426903,-41.569219
2649.980000,1.080000,0.000000,0.000000,9.810000,0.000000,0.000000,0.000000,18.385067,-15.426903,-41.569219
2649.990000,1.090000,0.000000,0.000000,9.810000,0.000000,0.000000,0.000000,18.385067,-15.426903,-41.569219
2650.000000,1.100000,0.000000,0.000000,9.810000,0.000000,0.000000,0.000000,18.385067,-15.426903,-41.569219
2650.010000,1.110000,0.000000,0.000000,9.810000,0.000000,0.000000,0.000000,18.385067,-15.426903,-41.569219
2650.020000,1.120000,0.000000,0.000000,9.810000,0.000000,0.000000,0.000000,18.385067,-15.426903,-41.569219
2650.030000,1.130000,0.000000,0.000000,9.810000,0.000000,0.000000,0.000000,18.385067,-15.426903,-41.569219
2650.040000,1.140000,0.000000,0.000000,9.810000,0.000000,0.000000,0.000000,18.385067,-15.426903,-41.569219
2650.050000,1.150000,0.000000,0.000000,9.810000,0.000000,0.000000,0.000000,18.385067,-15.426903,-41.569219
2650.060000,1.160000,0.000000,0.000000,9.810000,0.000000,0.000000,0.000000,18.385067,-15.426903,-41.569219
2650.070000,1.170000,0.000000,0.000000,9.810000,0.000000,0.000000,0.000000,18.385067,-15.426903,-41.569219
2650.080000,1.180000,0.000000,0.000000,9.810000,0.000000,0.000000,0.000000,18.385067,-15.426903,-41.569219
2650.090000,1.190000,0.000000,0.000000,9.810000,0.000000,0.000000,0.000000,18.385067,-15.426903,-41.569219
2650.100000,1.200000,0.000000,0.000000,9.810000,0.000000,0.000000,0.000000,18.385067,-15.426903,-41.569219
2650.110000,1.210000,0.000000,0.000000,9.810000,0.000000,0.000000,0.000000,18.385067,-15.426903,-41.569219
2650.120000,1.220000,0.000000,0.000000,9.810000,0.000000,0.000000,0.000000,18.385067,-15.426903,-41.569219
2650.130000,1.230000,0.000000,0.000000,9.810000,0.000000,0.000000,0.000000,18.385067,-15.426903,-41.569219
2650.140000,1.240000,0.000000,0.000000,9.810000,0.000000,0.000000,0.000000,18.385067,-15.426903,-41.569219
2650.150000,1.250000,0.000000,0.000000,9.810000,0.000000,0.000000,0.000000,18.385067,-15.426903,-41.569219
2650.160000,1.260000,0.000000,0.000000,9.810000,0.000000,0.000000,0.000000,18.385067,-15.426903,-41.569219
2650.170000,1.270000,0.000000,0.000000,9.810000,0.000000,0.000000,0.000000,18.385067,-15.426903,-41.569219
2650.180000,1.280000,0.000000,0.000000,9.810000,0.000000,0.000000,0.000000,18.385067,-15.426903,-41.569219
2650.190000,1.290000,0.000000,0.000000,9.810000,0.000000,0.000000,0.000000,18.385067,-15.426903,-41.569219
2650.200000,1.300000,0.000000,0.000000,9.810000,0.000000,0.000000,0.000000,18.385067,-15.426903,-41.569219
2650.210000,1.310000,0.000000,0.000000,9.810000,0.000000,0.000000,0.000000,18.385067,-15.426903,-41.569219
2650.220000,1.320000,0.000000,0.000000,9.810000,0.000000,0.000000,0.000000,18.385067,-15.426903,-41.569219
2650.230000,1.330000,0.000000,0.000000,9.810000,0.000000,0.000000,0.000000,18.385067,-15.426903,-41.569219
2650.240000,1.340000,0.000000,0.000000,9.810000,0.000000,0.000000,0.000000,18.385067,-15.426903,-41.569219
2650.250000,1.350000,0.000000,0.000000,9.810000,0.000000,0.000000,0.000000,18.385067,-15.426903,-41.569219
2650.260000,1.360000,0.000000,0.000000,9.810000,0.000000,0.000000,0.000000,18.385067,-15.426903,-41.569219
2650.270000,1.370000,0.000000,0.000000,9.810000,0.000000,0.000000,0.000000,18.385067,-15.426903,-41.569219
2650.280000,1.380000,0.000000,0.000000,9.810000,0.000000,0.000000,0.000000,18.385067,-15.426903,-41.569219
2650.290000,1.390000,0.000000,0.000000,9.810000,0.000000,0.000000,0.000000,18.385067,-15.426903,-41.569219
2650.300000,1.400000,0.000000,0.000000,9.811673,0.000000,0.000000,0.000000,18.385067,-15.426903,-41.569219
2650.310000,1.410000,0.002176,0.000146,9.822571,0.000000,0.000000,0.000000,18.385067,-15.426903,-41.569219
2650.320000,1.420000,0.018540,0.001246,9.874520,0.000000,-0.000000,0.000000,18.385067,-15.426903,-41.569219
2650.330000,1.430000,0.102605,0.006895,10.071205,0.000000,-0.000001,-0.000000,18.385067,-15.426903,-41.569219
2650.340000,1.440000,0.443259,0.029777,10.634254,0.000000,-0.000004,0.000000,18.385066,-15.426903,-41.569220
2650.350000,1.450000,1.519714,0.102048,11.816163,0.000000,-0.000025,0.000000,18.385063,-15.426903,-41.569221
2650.360000,1.460000,4.145886,0.278217,13.518282,0.000000,-0.000109,-0.000000,18.385046,-15.426903,-41.569229
2650.370000,1.470000,9.021844,0.604819,14.835036,0.000000,-0.000401,-0.000000,18.384972,-15.426903,-41.569261
2650.380000,1.480000,15.693732,1.050325,14.325579,0.000000,-0.001237,-0.000000,18.384712,-15.426903,-41.569376
2650.390000,1.490000,21.858691,1.458503,11.360098,0.000000,-0.003246,0.000000,18.383944,-15.426903,-41.569716
2650.400000,1.500000,24.401384,1.618605,7.213060,0.000000,-0.007363,-0.000000,18.382013,-15.426903,-41.570570
2650.410000,1.510000,21.835356,1.430182,4.215925,0.000000,-0.014655,0.000000,18.377822,-15.426903,-41.572423
2650.420000,1.520000,15.647505,0.993776,3.667904,0.000000,-0.026002,-0.000000,18.369829,-15.426903,-41.575955
2650.430000,1.530000,8.954280,0.520226,4.968417,0.000000,-0.041791,-0.000000,18.356200,-15.426903,-41.581974
2650.440000,1.540000,4.059646,0.165856,6.691078,0.000000,-0.061769,0.000000,18.335072,-15.426903,-41.591295
2650.450000,1.550000,1.417739,-0.037714,7.927833,0.000000,-0.085091,-0.000000,18.304817,-15.426903,-41.604619
2650.460000,1.560000,0.328266,-0.136931,8.570588,0.000000,-0.110476,-0.000000,18.264264,-15.426903,-41.622438
2650.470000,1.570000,-0.022744,-0.186215,8.863976,0.000000,-0.136368,0.000000,18.212846,-15.426903,-41.644963
2650.480000,1.580000,-0.114299,-0.217635,9.025278,0.000000,-0.161075,0.000000,18.150677,-15.426903,-41.672096
2650.490000,1.590000,-0.135124,-0.243793,9.155854,0.000000,-0.182866,-0.000000,18.078593,-15.426903,-41.703419
2650.500000,1.600000,-0.138801,-0.268202,9.285801,0.000000,-0.200066,0.000000,17.998148,-15.426903,-41.738200
2650.510000,1.610000,-0.137642,-0.291589,9.420976,0.000000,-0.211135,-0.000000,17.911579,-15.426903,-41.775423
2650.520000,1.620000,-0.134327,-0.314026,9.561285,0.000000,-0.214741,-0.000000,17.821740,-15.426903,-41.813829
2650.530000,1.630000,-0.129540,-0.335438,9.704885,0.000000,-0.209832,0.000000,17.731996,-15.426903,-41.851965
2650.540000,1.640000,-0.124119,-0.355756,9.849892,0.000000,-0.195685,0.000000,17.646106,-15.426903,-41.888252
2650.550000,1.650000,-0.119029,-0.374913,9.994405,0.000000,-0.171956,0.000000,17.568064,-15.426903,-41.921042
2650.560000,1.660000,-0.115320,-0.392848,10.136529,0.000000,-0.138697,-0.000000,17.501943,-15.426903,-41.948691
2650.570000,1.670000,-0.114083,-0.409501,10.274406,0.000000,-0.096376,-0.000000,17.451710,-15.426903,-41.969614
2650.580000,1.680000,-0.116396,-0.424819,10.406227,0.000000,-0.045862,0.000000,17.421054,-15.426903,-41.982348
2650.590000,1.690000,-0.123259,-0.438751,10.530266,0.000000,0.011595,-0.000000,17.413207,-15.426903,-41.985603
2650.600000,1.700000,-0.135541,-0.451252,10.644886,0.000000,0.074407,-0.000000,17.430789,-15.426903,-41.978307
2650.610000,1.710000,-0.153919,-0.462280,10.748567,0.000000,0.140701,-0.000000,17.475668,-15.426903,-41.959644
2650.620000,1.720000,-0.178827,-0.471802,10.839920,0.000000,0.208390,0.000000,17.548848,-15.426903,-41.929090
2650.630000,1.730000,-0.210414,-0.479784,10.917706,0.000000,0.275248,-0.000000,17.650395,-15.426903,-41.886444
2650.640000,1.740000,-0.248517,-0.486201,10.980852,0.000000,0.338995,0.000000,17.779399,-15.426903,-41.831850
2650.650000,1.750000,-0.292651,-0.491032,11.028472,0.000000,0.397388,0.000000,17.933974,-15.426903,-41.765814
2650.660000,1.760000,-0.342011,-0.494262,11.059884,0.000000,0.448303,0.000000,18.111304,-15.426903,-41.689223
2650.670000,1.770000,-0.395496,-0.495879,11.074627,0.000000,0.489824,-0.000000,18.307724,-15.426903,-41.603340
2650.680000,1.780000,-0.451751,-0.495879,11.072475,0.000000,0.520321,-0.000000,18.518838,-15.426903,-41.509798
2650.690000,1.790000,-0.509222,-0.494262,11.053448,0.000000,0.538520,0.000000,18.739669,-15.426903,-41.410572
2650.700000,1.800000,-0.566223,-0.491032,11.017815,0.000000,0.543588,0.000000,18.964835,-15.426903,-41.307938
2650.710000,1.810000,-0.621020,-0.486201,10.966094,0.000000,0.535240,-0.000000,19.188761,-15.426903,-41.204394
2650.720000,1.820000,-0.671923,-0.479784,10.899041,0.000000,0.513887,-0.000000,19.405936,-15.426903,-41.102559
2650.730000,1.830000,-0.717401,-0.471802,10.817633,0.000000,0.480764,0.000000,19.611230,-15.426903,-41.005004
2650.740000,1.840000,-0.756190,-0.462280,10.723039,0.000000,0.437876,0.000000,19.800247,-15.426903,-40.914067
2650.750000,1.850000,-0.787375,-0.451252,10.616591,0.000000,0.387632,0.000000,19.969577,-15.426903,-40.831687
2650.760000,1.860000,-0.810400,-0.438751,10.499759,0.000000,0.332255,0.000000,20.116841,-15.426903,-40.759335
2650.770000,1.870000,-0.825008,-0.424819,10.374125,0.000000,0.273326,-0.000000,20.240465,-15.426903,-40.698087
2650.780000,1.880000,-0.831142,-0.409501,10.241368,0.000000,0.211754,0.000000,20.339352,-15.426903,-40.648757
2650.790000,1.890000,-0.828878,-0.392848,10.103242,0.000000,0.148082,0.000000,20.412643,-15.426903,-40.612002
2650.800000,1.900000,-0.818396,-0.374913,9.961552,0.000000,0.082823,-0.000000,20.459649,-15.426903,-40.588341
2650.810000,1.910000,-0.799969,-0.355756,9.818138,0.000000,0.016620,-0.000000,20.479887,-15.426903,-40.578133
2650.820000,1.920000,-0.773969,-0.335438,9.674841,0.000000,-0.049758,0.000000,20.473139,-15.426903,-40.581538
2650.830000,1.930000,-0.740856,-0.314026,9.533485,0.000000,-0.115477,-0.000000,20.439495,-15.426903,-40.598494
2650.840000,1.940000,-0.701155,-0.291589,9.395856,0.000000,-0.179689,-0.000000,20.379360,-15.426903,-40.628714
2650.850000,1.950000,-0.655448,-0.268202,9.263679,0.000000,-0.241557,0.000000,20.293461,-15.426903,-40.671687
2650.860000,1.960000,-0.604345,-0.243940,9.138600,0.000000,-0.300277,-0.000000,20.182839,-15.426903,-40.726695
2650.870000,1.970000,-0.548471,-0.218882,9.022168,0.000000,-0.355082,-0.000000,20.048841,-15.426903,-40.792826
2650.880000,1.980000,-0.488449,-0.193110,8.915821,0.000000,-0.405258,0.000000,19.893106,-15.426903,-40.868998
2650.890000,1.990000,-0.424889,-0.166708,8.820866,0.000000,-0.450150,-0.000000,19.717553,-15.426903,-40.953984
2650.900000,2.000000,-0.358377,-0.139762,8.738466,0.000000,-0.489175,0.000000,19.524359,-15.426903,-41.046438
2650.910000,2.010000,-0.289469,-0.112361,8.669631,0.000000,-0.521822,-0.000000,19.315941,-15.426903,-41.144928
2650.920000,2.020000,-0.218691,-0.084593,8.615201,0.000000,-0.547666,0.000000,19.094924,-15.426903,-41.247964
2650.930000,2.030000,-0.146542,-0.056549,8.575841,0.000000,-0.566371,0.000000,18.864115,-15.426903,-41.354030
2650.940000,2.040000,-0.073494,-0.028321,8.552032,0.000000,-0.577692,-0.000000,18.626473,-15.426903,-41.461611
2650.950000,2.050000,-0.000000,0.000000,8.544063,0.000000,-0.581482,0.000000,18.385067,-15.426903,-41.569219
2650.960000,2.060000,0.073494,0.028321,8.552032,0.000000,-0.577692,0.000000,18.143038,-15.426903,-41.675422
2650.970000,2.070000,0.146542,0.056549,8.575841,0.000000,-0.566371,-0.000000,17.903564,-15.426903,-41.778859
2650.980000,2.080000,0.218691,0.084593,8.615201,0.000000,-0.547666,-0.000000,17.669807,-15.426903,-41.878259
2650.990000,2.090000,0.289469,0.112361,8.669631,0.000000,-0.521822,0.000000,17.444879,-15.426903,-41.972454
2651.000000,2.100000,0.358377,0.139762,8.738466,0.000000,-0.489175,-0.000000,17.231791,-15.426903,-42.060386
2651.010000,2.110000,0.424889,0.166708,8.820866,0.000000,-0.450150,0.000000,17.033412,-15.426903,-42.141115
2651.020000,2.120000,0.488449,0.193110,8.915821,0.000000,-0.405258,-0.000000,16.852427,-15.426903,-42.213817
2651.030000,2.130000,0.548471,0.218882,9.022168,0.000000,-0.355082,0.000000,16.691295,-15.426903,-42.277788
2651.040000,2.140000,0.604345,0.243940,9.138600,0.000000,-0.300277,0.000000,16.552216,-15.426903,-42.332432
2651.050000,2.150000,0.655448,0.268202,9.263679,0.000000,-0.241557,-0.000000,16.437094,-15.426903,-42.377265
2651.060000,2.160000,0.701155,0.291589,9.395856,0.000000,-0.179689,0.000000,16.347510,-15.426903,-42.411904
2651.070000,2.170000,0.740856,0.314026,9.533485,0.000000,-0.115477,0.000000,16.284694,-15.426903,-42.436063
2651.080000,2.180000,0.773970,0.335438,9.674841,0.000000,-0.049761,-0.000000,16.249514,-15.426903,-42.449546
2651.090000,2.190000,0.799969,0.355756,9.818138,0.000000,0.016605,-0.000000,16.242453,-15.426903,-42.452248
2651.100000,2.200000,0.818399,0.374913,9.961552,0.000000,0.082754,0.000000,16.263610,-15.426903,-42.444148
2651.110000,2.210000,0.828893,0.392848,10.103240,0.000000,0.147824,0.000000,16.312693,-15.426903,-42.425308
2651.120000,2.220000,0.831198,0.409501,10.241364,0.000000,0.210967,0.000000,16.389024,-15.426903,-42.395879
2651.130000,2.230000,0.825186,0.424819,10.374111,0.000000,0.271360,-0.000000,16.491554,-15.426903,-42.356101
2651.140000,2.240000,0.810870,0.438751,10.499723,0.000000,0.328215,-0.000000,16.618873,-15.426903,-42.306308
2651.150000,2.250000,0.788415,0.451252,10.616514,0.000000,0.380791,0.000000,16.769235,-15.426903,-42.246934
2651.160000,2.260000,0.758137,0.462280,10.722901,0.000000,0.428403,-0.000000,16.940586,-15.426903,-42.178516
2651.170000,2.270000,0.720510,0.471802,10.817427,0.000000,0.470430,0.000000,17.130591,-15.426903,-42.101705
2651.180000,2.280000,0.676155,0.479784,10.898780,0.000000,0.506324,-0.000000,17.336672,-15.426903,-42.017264
2651.190000,2.290000,0.625830,0.486201,10.965820,0.000000,0.535617,0.000000,17.556049,-15.426903,-41.926076
2651.200000,2.300000,0.570418,0.491032,11.017598,0.000000,0.557928,0.000000,17.785774,-15.426903,-41.829139
2651.210000,2.310000,0.510901,0.494262,11.053370,0.000000,0.572966,-0.000000,18.022783,-15.426903,-41.727568
2651.220000,2.320000,0.448339,0.495879,11.072614,0.000000,0.580534,-0.000000,18.263932,-15.426903,-41.622584
2651.230000,2.330000,0.383841,0.495879,11.075037,0.000000,0.580534,0.000000,18.506045,-15.426903,-41.515503
2651.240000,2.340000,0.318537,0.494262,11.060585,0.000000,0.572966,0.000000,18.745959,-15.426903,-41.407725
2651.250000,2.350000,0.253546,0.491032,11.029441,0.000000,0.557928,-0.000000,18.980562,-15.426903,-41.300714
2651.260000,2.360000,0.189951,0.486201,10.982022,0.000000,0.535617,-0.000000,19.206835,-15.426903,-41.195972
2651.270000,2.370000,0.128765,0.479784,10.918975,0.000000,0.506324,0.000000,19.421894,-15.426903,-41.095021
2651.280000,2.380000,0.070911,0.471802,10.841164,0.000000,0.470430,-0.000000,19.623015,-15.426903,-40.999365
2651.290000,2.390000,0.017200,0.462280,10.749655,0.000000,0.428403,0.000000,19.807676,-15.426903,-40.910471
2651.300000,2.400000,-0.031688,0.451252,10.645701,0.000000,0.380791,-0.000000,19.973577,-15.426903,-40.829731
2651.310000,2.410000,-0.075212,0.438751,10.530718,0.000000,0.328215,0.000000,20.118666,-15.426903,-40.758434
2651.320000,2.420000,-0.112980,0.424819,10.406265,0.000000,0.271360,0.000000,20.241163,-15.426903,-40.697739
2651.330000,2.430000,-0.144749,0.409501,10.274019,0.000000,0.210967,-0.000000,20.339573,-15.426903,-40.648646
2651.340000,2.440000,-0.170418,0.392848,10.135753,0.000000,0.147824,-0.000000,20.412701,-15.426903,-40.611973
2651.350000,2.450000,-0.190021,0.374913,9.993307,0.000000,0.082754,-0.000000,20.459661,-15.426903,-40.588335
2651.360000,2.460000,-0.203716,0.355756,9.848568,0.000000,0.016605,0.000000,20.479889,-15.426903,-40.578133
2651.370000,2.470000,-0.211765,0.335438,9.703439,0.000000,-0.049761,0.000000,20.473139,-15.426903,-40.581538
2651.380000,2.480000,-0.214516,0.314026,9.559822,0.000000,-0.115477,-0.000000,20.439495,-15.426903,-40.598494
2651.390000,2.490000,-0.212386,0.291589,9.419587,0.000000,-0.179689,-0.000000,20.379360,-15.426903,-40.628714
2651.400000,2.500000,-0.205836,0.268202,9.284556,0.000000,-0.241557,0.000000,20.293461,-15.426903,-40.671687
2651.410000,2.510000,-0.195356,0.243940,9.156477,0.000000,-0.300277,-0.000000,20.182839,-15.426903,-40.726695
2651.420000,2.520000,-0.181444,0.218882,9.037003,0.000000,-0.355082,-0.000000,20.048841,-15.426903,-40.792826
2651.430000,2.530000,-0.164590,0.193110,8.927674,0.000000,-0.405258,0.000000,19.893106,-15.426903,-40.868998
2651.440000,2.540000,-0.145266,0.166708,8.829898,0.000000,-0.450150,-0.000000,19.717553,-15.426903,-40.953984
2651.450000,2.550000,-0.123917,0.139762,8.744934,0.000000,-0.489175,0.000000,19.524359,-15.426903,-41.046438
2651.460000,2.560000,-0.100952,0.112361,8.673875,0.000000,-0.521822,-0.000000,19.315941,-15.426903,-41.144928
2651.470000,2.570000,-0.076748,0.084593,8.617635,0.000000,-0.547666,0.000000,19.094924,-15.426903,-41.247964
2651.480000,2.580000,-0.051648,0.056549,8.576938,0.000000,-0.566371,0.000000,18.864115,-15.426903,-41.354030
2651.490000,2.590000,-0.025967,0.028321,8.552308,0.000000,-0.577692,-0.000000,18.626473,-15.426903,-41.461611
2651.500000,2.600000,0.000000,-0.000000,8.544063,0.000000,-0.581482,0.000000,18.385067,-15.426903,-41.569219
2651.510000,2.610000,0.025967,-0.028321,8.552308,0.000000,-0.577692,0.000000,18.143038,-15.426903,-41.675422
2651.520000,2.620000,0.051648,-0.056549,8.576938,0.000000,-0.566371,-0.000000,17.903564,-15.426903,-41.778859
2651.530000,2.630000,0.076748,-0.084593,8.617635,0.000000,-0.547666,-0.000000,17.669807,-15.426903,-41.878259
2651.540000,2.640000,0.100952,-0.112361,8.673875,0.000000,-0.521822,0.000000,17.444879,-15.426903,-41.972454
2651.550000,2.650000,0.123917,-0.139762,8.744934,0.000000,-0.489175,-0.000000,17.231791,-15.426903,-42.060386
2651.560000,2.660000,0.145266,-0.166708,8.829898,0.000000,-0.450150,0.000000,17.033412,-15.426903,-42.141115
2651.570000,2.670000,0.164590,-0.193110,8.927674,0.000000,-0.405258,-0.000000,16.852427,-15.426903,-42.213817
2651.580000,2.680000,0.181444,-0.218882,9.037003,0.000000,-0.355082,0.000000,16.691295,-15.426903,-42.277788
2651.590000,2.690000,0.195356,-0.243940,9.156477,0.000000,-0.300277,0.000000,16.552216,-15.426903,-42.332432
2651.600000,2.700000,0.205836,-0.268202,9.284556,0.000000,-0.241557,-0.000000,16.437094,-15.426903,-42.377265
2651.610000,2.710000,0.212386,-0.291589,9.419587,0.000000,-0.179689,0.000000,16.347510,-15.426903,-42.411904
2651.620000,2.720000,0.214516,-0.314026,9.559822,0.000000,-0.115477,0.000000,16.284694,-15.426903,-42.436063
2651.630000,2.730000,0.211765,-0.335438,9.703439,0.000000,-0.049761,-0.000000,16.249514,-15.426903,-42.449546
2651.640000,2.740000,0.203716,-0.355756,9.848568,0.000000,0.016605,-0.000000,16.242453,-15.426903,-42.452248
2651.650000,2.750000,0.190021,-0.374913,9.993307,0.000000,0.082754,0.000000,16.263610,-15.426903,-42.444148
2651.660000,2.760000,0.170418,-0.392848,10.135753,0.000000,0.147824,0.000000,16.312693,-15.426903,-42.425308
2651.670000,2.770000,0.144749,-0.409501,10.274019,0.000000,0.210967,0.000000,16.389024,-15.426903,-42.395879
2651.680000,2.780000,0.112980,-0.424819,10.406265,0.000000,0.271360,-0.000000,16.491554,-15.426903,-42.356101
2651.690000,2.790000,0.075212,-0.438751,10.530718,0.000000,0.328215,-0.000000,16.618873,-15.426903,-42.306308
2651.700000,2.800000,0.031688,-0.451252,10.645701,0.000000,0.380791,0.000000,16.769235,-15.426903,-42.246934
2651.710000,2.810000,-0.017200,-0.462280,10.749655,0.000000,0.428403,-0.000000,16.940586,-15.426903,-42.178516
2651.720000,2.820000,-0.070911,-0.471802,10.841164,0.000000,0.470430,0.000000,17.130591,-15.426903,-42.101705
2651.730000,2.830000,-0.128765,-0.479784,10.918975,0.000000,0.506324,-0.000000,17.336672,-15.426903,-42.017264
2651.740000,2.840000,-0.189951,-0.486201,10.982022,0.000000,0.535617,0.000000,17.556049,-15.426903,-41.926076
2651.750000,2.850000,-0.253546,-0.491032,11.029441,0.000000,0.557928,0.000000,17.785774,-15.426903,-41.829139
2651.760000,2.860000,-0.318537,-0.494262,11.060585,0.000000,0.572966,-0.000000,18.022783,-15.426903,-41.727568
2651.770000,2.870000,-0.383841,-0.495879,11.075037,0.000000,0.580534,-0.000000,18.263932,-15.426903,-41.622584
2651.780000,2.880000,-0.448339,-0.495879,11.072614,0.000000,0.580534,0.000000,18.506045,-15.426903,-41.515503
2651.790000,2.890000,-0.510901,-0.494262,11.053370,0.000000,0.572966,0.000000,18.745959,-15.426903,-41.407725
2651.800000,2.900000,-0.570418,-0.491032,11.017598,0.000000,0.557928,-0.000000,18.980562,-15.426903,-41.300714
2651.810000,2.910000,-0.625830,-0.486201,10.965820,0.000000,0.535617,-0.000000,19.206835,-15.426903,-41.195972
2651.820000,2.920000,-0.676155,-0.479784,10.898780,0.000000,0.506324,0.000000,19.421894,-15.426903,-41.095021
2651.830000,2.930000,-0.720510,-0.471802,10.817427,0.000000,0.470430,-0.000000,19.623015,-15.426903,-40.999365
2651.840000,2.940000,-0.758137,-0.462280,10.722901,0.000000,0.428403,0.000000,19.807676,-15.426903,-40.910471
2651.850000,2.950000,-0.788415,-0.451252,10.616514,0.000000,0.380791,-0.000000,19.973577,-15.426903,-40.829731
2651.860000,2.960000,-0.810870,-0.438751,10.499723,0.000000,0.328215,0.000000,20.118666,-15.426903,-40.758434
2651.870000,2.970000,-0.825186,-0.424819,10.374111,0.000000,0.271360,0.000000,20.241163,-15.426903,-40.697739
2651.880000,2.980000,-0.831198,-0.409501,10.241364,0.000000,0.210967,-0.000000,20.339573,-15.426903,-40.648646
2651.890000,2.990000,-0.828893,-0.392848,10.103240,0.000000,0.147824,-0.000000,20.412701,-15.426903,-40.611973
2651.900000,3.000000,-0.818399,-0.374913,9.961552,0.000000,0.082754,-0.000000,20.459661,-15.426903,-40.588335
2651.910000,3.010000,-0.799969,-0.355756,9.818138,0.000000,0.016605,0.000000,20.479889,-15.426903,-40.578133
2651.920000,3.020000,-0.773970,-0.335438,9.674841,0.000000,-0.049761,0.000000,20.473139,-15.426903,-40.581538
2651.930000,3.030000,-0.740856,-0.314026,9.533485,0.000000,-0.115477,-0.000000,20.439495,-15.426903,-40.598494
2651.940000,3.040000,-0.701155,-0.291589,9.395856,0.000000,-0.179689,-0.000000,20.379360,-15.426903,-40.628714
2651.950000,3.050000,-0.655448,-0.268202,9.263679,0.000000,-0.241557,0.000000,20.293461,-15.426903,-40.671687
2651.960000,3.060000,-0.604345,-0.243940,9.138600,0.000000,-0.300277,-0.000000,20.182839,-15.426903,-40.726695
2651.970000,3.070000,-0.548471,-0.218882,9.022168,0.000000,-0.355082,-0.000000,20.048841,-15.426903,-40.792826
2651.980000,3.080000,-0.488449,-0.193110,8.915821,0.000000,-0.405258,0.000000,19.893106,-15.426903,-40.868998
2651.990000,3.090000,-0.424889,-0.166708,8.820866,0.000000,-0.450150,-0.000000,19.717553,-15.426903,-40.953984
2652.000000,3.100000,-0.358377,-0.139762,8.738466,0.000000,-0.489175,0.000000,19.524359,-15.426903,-41.046438
2652.010000,3.110000,-0.289469,-0.112361,8.669631,0.000000,-0.521822,-0.000000,19.315941,-15.426903,-41.144928
2652.020000,3.120000,-0.218691,-0.084593,8.615201,0.000000,-0.547666,0.000000,19.094924,-15.426903,-41.247964
2652.030000,3.130000,-0.146542,-0.056549,8.575841,0.000000,-0.566371,0.000000,18.864115,-15.426903,-41.354030
2652.040000,3.140000,-0.073494,-0.028321,8.552032,0.000000,-0.577692,-0.000000,18.626473,-15.426903,-41.461611
2652.050000,3.150000,0.000000,-0.000000,8.544063,0.000000,-0.581482,0.000000,18.385067,-15.426903,-41.569219
2652.060000,3.160000,0.073494,0.028321,8.552032,0.000000,-0.577692,0.000000,18.143038,-15.426903,-41.675422
2652.070000,3.170000,0.146542,0.056549,8.575841,0.000000,-0.566371,-0.000000,17.903564,-15.426903,-41.778859
2652.080000,3.180000,0.218691,0.084593,8.615201,0.000000,-0.547666,-0.000000,17.669807,-15.426903,-41.878259
2652.090000,3.190000,0.289469,0.112361,8.669631,0.000000,-0.521822,0.000000,17.444879,-15.426903,-41.972454
2652.100000,3.200000,0.358377,0.139762,8.738466,0.000000,-0.489175,-0.000000,17.231791,-15.426903,-42.060386
2652.110000,3.210000,0.424889,0.166708,8.820866,0.000000,-0.450150,0.000000,17.033412,-15.426903,-42.141115
2652.120000,3.220000,0.488449,0.193110,8.915821,0.000000,-0.405258,-0.000000,16.852427,-15.426903,-42.213817
2652.130000,3.230000,0.548471,0.218882,9.022168,0.000000,-0.355082,0.000000,16.691295,-15.426903,-42.277788
2652.140000,3.240000,0.604345,0.243940,9.138600,0.000000,-0.300277,0.000000,16.552216,-15.426903,-42.332432
2652.150000,3.250000,0.655448,0.268202,9.263679,0.000000,-0.241557,-0.000000,16.437094,-15.426903,-42.377265
2652.160000,3.260000,0.701155,0.291589,9.395856,0.000000,-0.179689,0.000000,16.347510,-15.426903,-42.411904
2652.170000,3.270000,0.740856,0.314026,9.533485,0.000000,-0.115477,0.000000,16.284694,-15.426903,-42.436063
2652.180000,3.280000,0.773970,0.335438,9.674841,0.000000,-0.049761,-0.000000,16.249514,-15.426903,-42.449546
2652.190000,3.290000,0.799969,0.355756,9.818138,0.000000,0.016605,-0.000000,16.242453,-15.426903,-42.452248
2652.200000,3.300000,0.818399,0.374913,9.961552,0.000000,0.082754,0.000000,16.263610,-15.426903,-42.444148
2652.210000,3.310000,0.828893,0.392848,10.103240,0.000000,0.147824,0.000000,16.312693,-15.426903,-42.425308
2652.220000,3.320000,0.831198,0.409501,10.241364,0.000000,0.210967,0.000000,16.389024,-15.426903,-42.395879
2652.230000,3.330000,0.825186,0.424819,10.374111,0.000000,0.271360,-0.000000,16.491554,-15.426903,-42.356101
2652.240000,3.340000,0.810870,0.438751,10.499723,0.000000,0.328215,-0.000000,16.618873,-15.426903,-42.306308
2652.250000,3.350000,0.788415,0.451252,10.616514,0.000000,0.380791,0.000000,16.769235,-15.426903,-42.246934
2652.260000,3.360000,0.758137,0.462280,10.722901,0.000000,0.428403,-0.000000,16.940586,-15.426903,-42.178516
2652.270000,3.370000,0.720510,0.471802,10.817427,0.000000,0.470430,0.000000,17.130591,-15.426903,-42.101705
2652.280000,3.380000,0.676155,0.479784,10.898780,0.000000,0.506324,-0.000000,17.336672,-15.426903,-42.017264
2652.290000,3.390000,0.625830,0.486201,10.965820,0.000000,0.535617,0.000000,17.556049,-15.426903,-41.926076
2652.300000,3.400000,0.570418,0.491032,11.017598,0.000000,0.557928,0.000000,17.785774,-15.426903,-41.829139
2652.310000,3.410000,0.510901,0.494262,11.053370,0.000000,0.572966,-0.000000,18.022783,-15.426903,-41.727568
2652.320000,3.420000,0.448339,0.495879,11.072614,0.000000,0.580534,-0.000000,18.263932,-15.426903,-41.622584
2652.330000,3.430000,0.383841,0.495879,11.075037,0.000000,0.580534,0.000000,18.506045,-15.426903,-41.515503
2652.340000,3.440000,0.318537,0.494262,11.060585,0.000000,0.572966,0.000000,18.745959,-15.426903,-41.407725
2652.350000,3.450000,0.253546,0.491032,11.029441,0.000000,0.557928,-0.000000,18.980562,-15.426903,-41.300714
2652.360000,3.460000,0.189951,0.486201,10.982022,0.000000,0.535617,-0.000000,19.206835,-15.426903,-41.195972
2652.370000,3.470000,0.128765,0.479784,10.918975,0.000000,0.506324,0.000000,19.421894,-15.426903,-41.095021
2652.380000,3.480000,0.070911,0.471802,10.841164,0.000000,0.470430,-0.000000,19.623015,-15.426903,-40.999365
2652.390000,3.490000,0.017200,0.462280,10.749655,0.000000,0.428403,0.000000,19.807676,-15.426903,-40.910471
2652.400000,3.500000,-0.031688,0.451252,10.645701,0.000000,0.380791,-0.000000,19.973577,-15.426903,-40.829731
2652.410000,3.510000,-0.075212,0.438751,10.530718,0.000000,0.328215,0.000000,20.118666,-15.426903,-40.758434
2652.420000,3.520000,-0.112980,0.424819,10.406265,0.000000,0.271360,0.000000,20.241163,-15.426903,-40.697739
2652.430000,3.530000,-0.144749,0.409501,10.274019,0.000000,0.210967,-0.000000,20.339573,-15.426903,-40.648646
2652.440000,3.540000,-0.170418,0.392848,10.135753,0.000000,0.147824,-0.000000,20.412701,-15.426903,-40.611973
2652.450000,3.550000,-0.190021,0.374913,9.993307,0.000000,0.082754,-0.000000,20.459661,-15.426903,-40.588335
2652.460000,3.560000,-0.203716,0.355756,9.848568,0.000000,0.016605,0.000000,20.479889,-15.426903,-40.578133
2652.470000,3.570000,-0.211765,0.335438,9.703439,0.000000,-0.049761,0.000000,20.473139,-15.426903,-40.581538
2652.480000,3.580000,-0.214516,0.314026,9.559822,0.000000,-0.115477,-0.000000,20.439495,-15.426903,-40.598494
2652.490000,3.590000,-0.212386,0.291589,9.419587,0.000000,-0.179689,-0.000000,20.379360,-15.426903,-40.628714
2652.500000,3.600000,-0.205836,0.268202,9.284556,0.000000,-0.241557,0.000000,20.293461,-15.426903,-40.671687
2652.510000,3.610000,-0.195356,0.243940,9.156477,0.000000,-0.300277,-0.000000,20.182839,-15.426903,-40.726695
2652.520000,3.620000,-0.181444,0.218882,9.037003,0.000000,-0.355082,-0.000000,20.048841,-15.426903,-40.792826
2652.530000,3.630000,-0.164590,0.193110,8.927674,0.000000,-0.405258,0.000000,19.893106,-15.426903,-40.868998
2652.540000,3.640000,-0.145266,0.166708,8.829898,0.000000,-0.450150,-0.000000,19.717553,-15.426903,-40.953984
2652.550000,3.650000,-0.123917,0.139762,8.744934,0.000000,-0.489175,0.000000,19.524359,-15.426903,-41.046438
2652.560000,3.660000,-0.100952,0.112361,8.673875,0.000000,-0.521822,-0.000000,19.315941,-15.426903,-41.144928
2652.570000,3.670000,-0.076748,0.084593,8.617635,0.000000,-0.547666,0.000000,19.094924,-15.426903,-41.247964
2652.580000,3.680000,-0.051648,0.056549,8.576938,0.000000,-0.566371,0.000000,18.864115,-15.426903,-41.354030
2652.590000,3.690000,-0.025967,0.028321,8.552308,0.000000,-0.577692,-0.000000,18.626473,-15.426903,-41.461611
2652.600000,3.700000,0.000000,-0.000000,8.544063,0.000000,-0.581482,0.000000,18.385067,-15.426903,-41.569219
2652.610000,3.710000,0.025967,-0.028321,8.552308,0.000000,-0.577692,0.000000,18.143038,-15.426903,-41.675422
2652.620000,3.720000,0.051648,-0.056549,8.576938,0.000000,-0.566371,-0.000000,17.903564,-15.426903,-41.778859
2652.630000,3.730000,0.076748,-0.084593,8.617635,0.000000,-0.547666,-0.000000,17.669807,-15.426903,-41.878259
2652.640000,3.740000,0.100952,-0.112361,8.673875,0.000000,-0.521822,0.000000,17.444879,-15.426903,-41.972454
2652.650000,3.750000,0.123917,-0.139762,8.744934,0.000000,-0.489175,-0.000000,17.231791,-15.426903,-42.060386
2652.660000,3.760000,0.145266,-0.166708,8.829898,0.000000,-0.450150,0.000000,17.033412,-15.426903,-42.141115
2652.670000,3.770000,0.164590,-0.193110,8.927674,0.000000,-0.405258,-0.000000,16.852427,-15.426903,-42.213817
2652.680000,3.780000,0.181444,-0.218882,9.037003,0.000000,-0.355082,0.000000,16.691295,-15.426903,-42.277788
2652.690000,3.790000,0.195356,-0.243940,9.156477,0.000000,-0.300277,0.000000,16.552216,-15.426903,-42.332432
2652.700000,3.800000,0.205836,-0.268202,9.284556,0.000000,-0.241557,-0.000000,16.437094,-15.426903,-42.377265
2652.710000,3.810000,0.212386,-0.291589,9.419587,0.000000,-0.179689,0.000000,16.347510,-15.426903,-42.411904
2652.720000,3.820000,0.214516,-0.314026,9.559822,0.000000,-0.115477,0.000000,16.284694,-15.426903,-42.436063
2652.730000,3.830000,0.211765,-0.335438,9.703439,0.000000,-0.049761,-0.000000,16.249514,-15.426903,-42.449546
2652.740000,3.840000,0.203716,-0.355756,9.848568,0.000000,0.016605,-0.000000,16.242453,-15.426903,-42.452248
2652.750000,3.850000,0.190021,-0.374913,9.993307,0.000000,0.082754,0.000000,16.263610,-15.426903,-42.444148
2652.760000,3.860000,0.170418,-0.392848,10.135753,0.000000,0.147824,0.000000,16.312693,-15.426903,-42.425308
2652.770000,3.870000,0.144749,-0.409501,10.274019,0.000000,0.210967,0.000000,16.389024,-15.426903,-42.395879
2652.780000,3.880000,0.112980,-0.424819,10.406265,0.000000,0.271360,-0.000000,16.491554,-15.426903,-42.356101
2652.790000,3.890000,0.075212,-0.438751,10.530718,0.000000,0.328215,-0.000000,16.618873,-15.426903,-42.306308
2652.800000,3.900000,0.031688,-0.451252,10.645701,0.000000,0.380791,0.000000,16.769235,-15.426903,-42.246934
2652.810000,3.910000,-0.017200,-0.462280,10.749655,0.000000,0.428403,-0.000000,16.940586,-15.426903,-42.178516
2652.820000,3.920000,-0.070911,-0.471802,10.841164,0.000000,0.470430,0.000000,17.130591,-15.426903,-42.101705
2652.830000,3.930000,-0.128765,-0.479784,10.918975,0.000000,0.506324,-0.000000,17.336672,-15.426903,-42.017264
2652.840000,3.940000,-0.189951,-0.486201,10.982022,0.000000,0.535617,0.000000,17.556049,-15.426903,-41.926076
2652.850000,3.950000,-0.253546,-0.491032,11.029441,0.000000,0.557928,0.000000,17.785774,-15.426903,-41.829139
2652.860000,3.960000,-0.318537,-0.494262,11.060585,0.000000,0.572966,-0.000000,18.022783,-15.426903,-41.727568
2652.870000,3.970000,-0.383841,-0.495879,11.075037,0.000000,0.580534,-0.000000,18.263932,-15.426903,-41.622584
2652.880000,3.980000,-0.448339,-0.495879,11.072614,0.000000,0.580534,0.000000,18.506045,-15.426903,-41.515503
2652.890000,3.990000,-0.510901,-0.494262,11.053370,0.000000,0.572966,0.000000,18.745959,-15.426903,-41.407725
2652.900000,4.000000,-0.570418,-0.491032,11.017598,0.000000,0.557928,-0.000000,18.980562,-15.426903,-41.300714
2652.910000,4.010000,-0.625830,-0.486201,10.965820,0.000000,0.535617,-0.000000,19.206835,-15.426903,-41.195972
2652.920000,4.020000,-0.676155,-0.479784,10.898780,0.000000,0.506324,0.000000,19.421894,-15.426903,-41.095021
2652.930000,4.030000,-0.720510,-0.471802,10.817427,0.000000,0.470430,-0.000000,19.623015,-15.426903,-40.999365
2652.940000,4.040000,-0.758137,-0.462280,10.722901,0.000000,0.428403,0.000000,19.807676,-15.426903,-40.910471
2652.950000,4.050000,-0.788415,-0.451252,10.616514,0.000000,0.380791,-0.000000,19.973577,-15.426903,-40.829731
2652.960000,4.060000,-0.810870,-0.438751,10.499723,0.000000,0.328215,0.000000,20.118666,-15.426903,-40.758434
2652.970000,4.070000,-0.825186,-0.424819,10.374111,0.000000,0.271360,0.000000,20.241163,-15.426903,-40.697739
2652.980000,4.080000,-0.831198,-0.409501,10.241364,0.000000,0.210967,-0.000000,20.339573,-15.426903,-40.648646
2652.990000,4.090000,-0.828893,-0.392848,10.103240,0.000000,0.147824,-0.000000,20.412701,-15.426903,-40.611973
2653.000000,4.100000,-0.818399,-0.374913,9.961552,0.000000,0.082754,-0.000000,20.459661,-15.426903,-40.588335
2653.010000,4.110000,-0.799969,-0.355756,9.818138,0.000000,0.016605,0.000000,20.479889,-15.426903,-40.578133
2653.020000,4.120000,-0.773970,-0.335438,9.674841,0.000000,-0.049761,0.000000,20.473139,-15.426903,-40.581538
2653.030000,4.130000,-0.740856,-0.314026,9.533485,0.000000,-0.115477,-0.000000,20.439495,-15.426903,-40.598494
2653.040000,4.140000,-0.701155,-0.291589,9.395856,0.000000,-0.179689,-0.000000,20.379360,-15.426903,-40.628714
2653.050000,4.150000,-0.655448,-0.268202,9.263679,0.000000,-0.241557,0.000000,20.293461,-15.426903,-40.671687
2653.060000,4.160000,-0.604345,-0.243940,9.138600,0.000000,-0.300277,-0.000000,20.182839,-15.426903,-40.726695
2653.070000,4.170000,-0.548471,-0.218882,9.022168,0.000000,-0.355082,-0.000000,20.048841,-15.426903,-40.792826
2653.080000,4.180000,-0.488449,-0.193110,8.915821,0.000000,-0.405258,0.000000,19.893106,-15.426903,-40.868998
2653.090000,4.190000,-0.424889,-0.166708,8.820866,0.000000,-0.450150,-0.000000,19.717553,-15.426903,-40.953984
2653.100000,4.200000,-0.358377,-0.139762,8.738466,0.000000,-0.489175,0.000000,19.524359,-15.426903,-41.046438
2653.110000,4.210000,-0.289469,-0.112361,8.669631,0.000000,-0.521822,-0.000000,19.315941,-15.426903,-41.144928
2653.120000,4.220000,-0.218691,-0.084593,8.615201,0.000000,-0.547666,0.000000,19.094924,-15.426903,-41.247964
2653.130000,4.230000,-0.146542,-0.056549,8.575841,0.000000,-0.566371,0.000000,18.864115,-15.426903,-41.354030
2653.140000,4.240000,-0.073494,-0.028321,8.552032,0.000000,-0.577692,-0.000000,18.626473,-15.426903,-41.461611
2653.150000,4.250000,-0.000000,0.000000,8.544063,0.000000,-0.581482,0.000000,18.385067,-15.426903,-41.569219
2653.160000,4.260000,0.073494,0.028321,8.552032,0.000000,-0.577692,0.000000,18.143038,-15.426903,-41.675422
2653.170000,4.270000,0.146542,0.056549,8.575841,0.000000,-0.566371,-0.000000,17.903564,-15.426903,-41.778859
2653.180000,4.280000,0.218691,0.084593,8.615201,0.000000,-0.547666,-0.000000,17.669807,-15.426903,-41.878259
2653.190000,4.290000,0.289469,0.112361,8.669631,0.000000,-0.521822,0.000000,17.444879,-15.426903,-41.972454
2653.200000,4.300000,0.358377,0.139762,8.738466,0.000000,-0.489175,-0.000000,17.231791,-15.426903,-42.060386
2653.210000,4.310000,0.424889,0.166708,8.820866,0.000000,-0.450150,0.000000,17.033412,-15.426903,-42.141115
2653.220000,4.320000,0.488449,0.193110,8.915821,0.000000,-0.405258,-0.000000,16.852427,-15.426903,-42.213817
2653.230000,4.330000,0.548471,0.218882,9.022168,0.000000,-0.355082,0.000000,16.691295,-15.426903,-42.277788
2653.240000,4.340000,0.604345,0.243940,9.138600,0.000000,-0.300277,0.000000,16.552216,-15.426903,-42.332432
2653.250000,4.350000,0.655448,0.268202,9.263679,0.000000,-0.241557,-0.000000,16.437094,-15.426903,-42.377265
2653.260000,4.360000,0.701155,0.291589,9.395856,0.000000,-0.179689,0.000000,16.347510,-15.426903,-42.411904
2653.270000,4.370000,0.740856,0.314026,9.533485,0.000000,-0.115477,0.000000,16.284694,-15.426903,-42.436063
2653.280000,4.380000,0.773970,0.335438,9.674841,0.000000,-0.049761,-0.000000,16.249514,-15.426903,-42.449546
2653.290000,4.390000,0.799969,0.355756,9.818138,0.000000,0.016605,-0.000000,16.242453,-15.426903,-42.452248
2653.300000,4.400000,0.818399,0.374913,9.961552,0.000000,0.082754,0.000000,16.263610,-15.426903,-42.444148
2653.310000,4.410000,0.828893,0.392848,10.103240,0.000000,0.147824,0.000000,16.312693,-15.426903,-42.425308
2653.320000,4.420000,0.831198,0.409501,10.241364,0.000000,0.210967,0.000000,16.389024,-15.426903,-42.395879
2653.330000,4.430000,0.825186,0.424819,10.374111,0.000000,0.271360,-0.000000,16.491554,-15.426903,-42.356101
2653.340000,4.440000,0.810870,0.438751,10.499723,0.000000,0.328215,-0.000000,16.618873,-15.426903,-42.306308
2653.350000,4.450000,0.788415,0.451252,10.616514,0.000000,0.380791,0.000000,16.769235,-15.426903,-42.246934
2653.360000,4.460000,0.758137,0.462280,10.722901,0.000000,0.428403,-0.000000,16.940586,-15.426903,-42.178516
2653.370000,4.470000,0.720510,0.471802,10.817427,0.000000,0.470430,0.000000,17.130591,-15.426903,-42.101705
2653.380000,4.480000,0.676155,0.479784,10.898780,0.000000,0.506324,-0.000000,17.336672,-15.426903,-42.017264
2653.390000,4.490000,0.625830,0.486201,10.965820,0.000000,0.535617,0.000000,17.556049,-15.426903,-41.926076
2653.400000,4.500000,0.570418,0.491032,11.017598,0.000000,0.557928,0.000000,17.785774,-15.426903,-41.829139
2653.410000,4.510000,0.510901,0.494262,11.053370,0.000000,0.572966,-0.000000,18.022783,-15.426903,-41.727568
2653.420000,4.520000,0.448339,0.495879,11.072614,0.000000,0.580534,-0.000000,18.263932,-15.426903,-41.622584
2653.430000,4.530000,0.383841,0.495879,11.075037,0.000000,0.580534,0.000000,18.506045,-15.426903,-41.515503
2653.440000,4.540000,0.318537,0.494262,11.060585,0.000000,0.572966,0.000000,18.745959,-15.426903,-41.407725
2653.450000,4.550000,0.253546,0.491032,11.029441,0.000000,0.557928,-0.000000,18.980562,-15.426903,-41.300714
2653.460000,4.560000,0.189951,0.486201,10.982022,0.000000,0.535617,-0.000000,19.206835,-15.426903,-41.195972
2653.470000,4.570000,0.128765,0.479784,10.918975,0.000000,0.506324,0.000000,19.421894,-15.426903,-41.095021
2653.480000,4.580000,0.070911,0.471802,10.841164,0.000000,0.470430,-0.000000,19.623015,-15.426903,-40.999365
2653.490000,4.590000,0.017200,0.462280,10.749655,0.000000,0.428403,0.000000,19.807676,-15.426903,-40.910471
2653.500000,4.600000,-0.031688,0.451252,10.645701,0.000000,0.380791,-0.000000,19.973577,-15.426903,-40.829731
2653.510000,4.610000,-0.075212,0.438751,10.530718,0.000000,0.328215,0.000000,20.118666,-15.426903,-40.758434
2653.520000,4.620000,-0.112980,0.424819,10.406265,0.000000,0.271360,0.000000,20.241163,-15.426903,-40.697739
2653.530000,4.630000,-0.144749,0.409501,10.274019,0.000000,0.210967,-0.000000,20.339573,-15.426903,-40.648646
2653.540000,4.640000,-0.170418,0.392848,10.135753,0.000000,0.147824,-0.000000,20.412701,-15.426903,-40.611973
2653.550000,4.650000,-0.190021,0.374913,9.993307,0.000000,0.082754,-0.000000,20.459661,-15.426903,-40.588335
2653.560000,4.660000,-0.203716,0.355756,9.848568,0.000000,0.016605,0.000000,20.479889,-15.426903,-40.578133
2653.570000,4.670000,-0.211765,0.335438,9.703439,0.000000,-0.049761,0.000000,20.473139,-15.426903,-40.581538
2653.580000,4.680000,-0.214516,0.314026,9.559822,0.000000,-0.115477,-0.000000,20.439495,-15.426903,-40.598494
2653.590000,4.690000,-0.212386,0.291589,9.419587,0.000000,-0.179689,-0.000000,20.379360,-15.426903,-40.628714
2653.600000,4.700000,-0.205836,0.268202,9.284556,0.000000,-0.241557,0.000000,20.293461,-15.426903,-40.671687
2653.610000,4.710000,-0.195356,0.243940,9.156477,0.000000,-0.300277,-0.000000,20.182839,-15.426903,-40.726695
2653.620000,4.720000,-0.181444,0.218882,9.037003,0.000000,-0.355082,-0.000000,20.048841,-15.426903,-40.792826
2653.630000,4.730000,-0.164590,0.193110,8.927674,0.000000,-0.405258,0.000000,19.893106,-15.426903,-40.868998
2653.640000,4.740000,-0.145266,0.166708,8.829898,0.000000,-0.450150,-0.000000,19.717553,-15.426903,-40.953984
2653.650000,4.750000,-0.123917,0.139762,8.744934,0.000000,-0.489175,0.000000,19.524359,-15.426903,-41.046438
2653.660000,4.760000,-0.100952,0.112361,8.673875,0.000000,-0.521822,-0.000000,19.315941,-15.426903,-41.144928
2653.670000,4.770000,-0.076748,0.084593,8.617635,0.000000,-0.547666,0.000000,19.094924,-15.426903,-41.247964
2653.680000,4.780000,-0.051648,0.056549,8.576938,0.000000,-0.566371,0.000000,18.864115,-15.426903,-41.354030
2653.690000,4.790000,-0.025967,0.028321,8.552308,0.000000,-0.577692,-0.000000,18.626473,-15.426903,-41.461611
2653.700000,4.800000,0.000000,-0.000000,8.544063,0.000000,-0.581482,0.000000,18.385067,-15.426903,-41.569219
2653.710000,4.810000,0.025967,-0.028321,8.552308,0.000000,-0.577692,0.000000,18.143038,-15.426903,-41.675422
2653.720000,4.820000,0.051648,-0.056549,8.576938,0.000000,-0.566371,-0.000000,17.903564,-15.426903,-41.778859
2653.730000,4.830000,0.076748,-0.084593,8.617635,0.000000,-0.547666,-0.000000,17.669807,-15.426903,-41.878259
2653.740000,4.840000,0.100952,-0.112361,8.673875,0.000000,-0.521822,0.000000,17.444879,-15.426903,-41.972454
2653.750000,4.850000,0.123917,-0.139762,8.744934,0.000000,-0.489175,-0.000000,17.231791,-15.426903,-42.060386
2653.760000,4.860000,0.145266,-0.166708,8.829898,0.000000,-0.450150,0.000000,17.033412,-15.426903,-42.141115
2653.770000,4.870000,0.164590,-0.193110,8.927674,0.000000,-0.405258,-0.000000,16.852427,-15.426903,-42.213817
2653.780000,4.880000,0.181444,-0.218882,9.037003,0.000000,-0.355082,0.000000,16.691295,-15.426903,-42.277788
2653.790000,4.890000,0.195356,-0.243940,9.156477,0.000000,-0.300277,0.000000,16.552216,-15.426903,-42.332432
2653.800000,4.900000,0.205836,-0.268202,9.284556,0.000000,-0.241557,-0.000000,16.437094,-15.426903,-42.377265
2653.810000,4.910000,0.212386,-0.291589,9.419587,0.000000,-0.179689,0.000000,16.347510,-15.426903,-42.411904
2653.820000,4.920000,0.214516,-0.314026,9.559822,0.000000,-0.115477,0.000000,16.284694,-15.426903,-42.436063
2653.830000,4.930000,0.211765,-0.335438,9.703439,0.000000,-0.049761,-0.000000,16.249514,-15.426903,-42.449546
2653.840000,4.940000,0.203716,-0.355756,9.848568,0.000000,0.016605,-0.000000,16.242453,-15.426903,-42.452248
2653.850000,4.950000,0.190021,-0.374913,9.993307,0.000000,0.082754,0.000000,16.263610,-15.426903,-42.444148
2653.860000,4.960000,0.170418,-0.392848,10.135753,0.000000,0.147824,0.000000,16.312693,-15.426903,-42.425308
2653.870000,4.970000,0.144749,-0.409501,10.274019,0.000000,0.210967,0.000000,16.389024,-15.426903,-42.395879
2653.880000,4.980000,0.112980,-0.424819,10.406265,0.000000,0.271360,-0.000000,16.491554,-15.426903,-42.356101
2653.890000,4.990000,0.075212,-0.438751,10.530718,0.000000,0.328215,-0.000000,16.618873,-15.426903,-42.306308
2653.900000,5.000000,0.031688,-0.451252,10.645701,0.000000,0.380791,0.000000,16.769235,-15.426903,-42.246934
2653.910000,5.010000,-0.017200,-0.462280,10.749655,0.000000,0.428403,-0.000000,16.940586,-15.426903,-42.178516
2653.920000,5.020000,-0.070911,-0.471802,10.841164,0.000000,0.470430,0.000000,17.130591,-15.426903,-42.101705
2653.930000,5.030000,-0.128765,-0.479784,10.918975,0.000000,0.506324,-0.000000,17.336672,-15.426903,-42.017264
2653.940000,5.040000,-0.189951,-0.486201,10.982022,0.000000,0.535617,0.000000,17.556049,-15.426903,-41.926076
2653.950000,5.050000,-0.253546,-0.491032,11.029441,0.000000,0.557928,0.000000,17.785774,-15.426903,-41.829139
2653.960000,5.060000,-0.318537,-0.494262,11.060585,0.000000,0.572966,-0.000000,18.022783,-15.426903,-41.727568
2653.970000,5.070000,-0.383841,-0.495879,11.075037,0.000000,0.580534,-0.000000,18.263932,-15.426903,-41.622584
2653.980000,5.080000,-0.448339,-0.495879,11.072614,0.000000,0.580534,0.000000,18.506045,-15.426903,-41.515503
2653.990000,5.090000,-0.510901,-0.494262,11.053370,0.000000,0.572966,0.000000,18.745959,-15.426903,-41.407725
2654.000000,5.100000,-0.570418,-0.491032,11.017598,0.000000,0.557928,-0.000000,18.980562,-15.426903,-41.300714
2654.010000,5.110000,-0.625830,-0.486201,10.965820,0.000000,0.535617,-0.000000,19.206835,-15.426903,-41.195972
2654.020000,5.120000,-0.676155,-0.479784,10.898780,0.000000,0.506324,0.000000,19.421894,-15.426903,-41.095021
2654.030000,5.130000,-0.720510,-0.471802,10.817427,0.000000,0.470430,-0.000000,19.623015,-15.426903,-40.999365
2654.040000,5.140000,-0.758137,-0.462280,10.722901,0.000000,0.428403,0.000000,19.807676,-15.426903,-40.910471
2654.050000,5.150000,-0.788415,-0.451252,10.616514,0.000000,0.380791,-0.000000,19.973577,-15.426903,-40.829731
2654.060000,5.160000,-0.810870,-0.438751,10.499723,0.000000,0.328215,0.000000,20.118666,-15.426903,-40.758434
2654.070000,5.170000,-0.825186,-0.424819,10.374111,0.000000,0.271360,0.000000,20.241163,-15.426903,-40.697739
2654.080000,5.180000,-0.831198,-0.409501,10.241364,0.000000,0.210967,-0.000000,20.339573,-15.426903,-40.648646
2654.090000,5.190000,-0.828893,-0.392848,10.103240,0.000000,0.147824,-0.000000,20.412701,-15.426903,-40.611973
2654.100000,5.200000,-0.818399,-0.374913,9.961552,0.000000,0.082754,-0.000000,20.459661,-15.426903,-40.588335
2654.110000,5.210000,-0.799969,-0.355756,9.818138,0.000000,0.016605,0.000000,20.479889,-15.426903,-40.578133
2654.120000,5.220000,-0.773970,-0.335438,9.674841,0.000000,-0.049761,0.000000,20.473139,-15.426903,-40.581538
2654.130000,5.230000,-0.740856,-0.314026,9.533485,0.000000,-0.115477,-0.000000,20.439495,-15.426903,-40.598494
2654.140000,5.240000,-0.701155,-0.291589,9.395856,0.000000,-0.179689,-0.000000,20.379360,-15.426903,-40.628714
2654.150000,5.250000,-0.655448,-0.268202,9.263679,0.000000,-0.241557,0.000000,20.293461,-15.426903,-40.671687
2654.160000,5.260000,-0.604345,-0.243940,9.138600,0.000000,-0.300277,-0.000000,20.182839,-15.426903,-40.726695
2654.170000,5.270000,-0.548471,-0.218882,9.022168,0.000000,-0.355082,-0.000000,20.048841,-15.426903,-40.792826
2654.180000,5.280000,-0.488449,-0.193110,8.915821,0.000000,-0.405258,0.000000,19.893106,-15.426903,-40.868998
2654.190000,5.290000,-0.424889,-0.166708,8.820866,0.000000,-0.450150,-0.000000,19.717553,-15.426903,-40.953984
2654.200000,5.300000,-0.358377,-0.139762,8.738466,0.000000,-0.489175,0.000000,19.524359,-15.426903,-41.046438
2654.210000,5.310000,-0.289469,-0.112361,8.669631,0.000000,-0.521822,-0.000000,19.315941,-15.426903,-41.144928
2654.220000,5.320000,-0.218691,-0.084593,8.615201,0.000000,-0.547666,0.000000,19.094924,-15.426903,-41.247964
2654.230000,5.330000,-0.146542,-0.056549,8.575841,0.000000,-0.566371,0.000000,18.864115,-15.426903,-41.354030
2654.240000,5.340000,-0.073494,-0.028321,8.552032,0.000000,-0.577692,-0.000000,18.626473,-15.426903,-41.461611
2654.250000,5.350000,-0.000000,0.000000,8.544063,0.000000,-0.581482,0.000000,18.385067,-15.426903,-41.569219
2654.260000,5.360000,0.073494,0.028321,8.552032,0.000000,-0.577692,0.000000,18.143038,-15.426903,-41.675422
2654.270000,5.370000,0.146542,0.056549,8.575841,0.000000,-0.566371,-0.000000,17.903564,-15.426903,-41.778859
2654.280000,5.380000,0.218691,0.084593,8.615201,0.000000,-0.547666,-0.000000,17.669807,-15.426903,-41.878259
2654.290000,5.390000,0.289469,0.112361,8.669631,0.000000,-0.521822,0.000000,17.444879,-15.426903,-41.972454
2654.300000,5.400000,0.358377,0.139762,8.738466,0.000000,-0.489175,-0.000000,17.231791,-15.426903,-42.060386
2654.310000,5.410000,0.424889,0.166708,8.820866,0.000000,-0.450150,0.000000,17.033412,-15.426903,-42.141115
2654.320000,5.420000,0.488449,0.193110,8.915821,0.000000,-0.405258,-0.000000,16.852427,-15.426903,-42.213817
2654.330000,5.430000,0.548471,0.218882,9.022168,0.000000,-0.355082,0.000000,16.691295,-15.426903,-42.277788
2654.340000,5.440000,0.604345,0.243940,9.138600,0.000000,-0.300277,0.000000,16.552216,-15.426903,-42.332432
2654.350000,5.450000,0.655448,0.268202,9.263679,0.000000,-0.241557,-0.000000,16.437094,-15.426903,-42.377265
2654.360000,5.460000,0.701155,0.291589,9.395856,0.000000,-0.179689,0.000000,16.347510,-15.426903,-42.411904
2654.370000,5.470000,0.740856,0.314026,9.533485,0.000000,-0.115477,0.000000,16.284694,-15.426903,-42.436063
2654.380000,5.480000,0.773970,0.335438,9.674841,0.000000,-0.049761,-0.000000,16.249514,-15.426903,-42.449546
2654.390000,5.490000,0.799969,0.355756,9.818138,0.000000,0.016605,-0.000000,16.242453,-15.426903,-42.452248
2654.400000,5.500000,0.818399,0.374913,9.961552,0.000000,0.082754,0.000000,16.263610,-15.426903,-42.444148
2654.410000,5.510000,0.828893,0.392848,10.103240,0.000000,0.147824,0.000000,16.312693,-15.426903,-42.425308
2654.420000,5.520000,0.831198,0.409501,10.241364,0.000000,0.210967,0.000000,16.389024,-15.426903,-42.395879
2654.430000,5.530000,0.825186,0.424819,10.374111,0.000000,0.271360,-0.000000,16.491554,-15.426903,-42.356101
2654.440000,5.540000,0.810870,0.438751,10.499723,0.000000,0.328215,-0.000000,16.618873,-15.426903,-42.306308
2654.450000,5.550000,0.788415,0.451252,10.616514,0.000000,0.380791,0.000000,16.769235,-15.426903,-42.246934
2654.460000,5.560000,0.758137,0.462280,10.722901,0.000000,0.428403,-0.000000,16.940586,-15.426903,-42.178516
2654.470000,5.570000,0.720510,0.471802,10.817427,0.000000,0.470430,0.000000,17.130591,-15.426903,-42.101705
2654.480000,5.580000,0.676155,0.479784,10.898780,0.000000,0.506324,-0.000000,17.336672,-15.426903,-42.017264
2654.490000,5.590000,0.625830,0.486201,10.965820,0.000000,0.535617,0.000000,17.556049,-15.426903,-41.926076
2654.500000,5.600000,0.570418,0.491032,11.017598,0.000000,0.557928,0.000000,17.785774,-15.426903,-41.829139
2654.510000,5.610000,0.510901,0.494262,11.053370,0.000000,0.572966,-0.000000,18.022783,-15.426903,-41.727568
2654.520000,5.620000,0.448339,0.495879,11.072614,0.000000,0.580534,-0.000000,18.263932,-15.426903,-41.622584
2654.530000,5.630000,0.383841,0.495879,11.075037,0.000000,0.580534,0.000000,18.506045,-15.426903,-41.515503
2654.540000,5.640000,0.318537,0.494262,11.060585,0.000000,0.572966,0.000000,18.745959,-15.426903,-41.407725
2654.550000,5.650000,0.253546,0.491032,11.029441,0.000000,0.557928,-0.000000,18.980562,-15.426903,-41.300714
2654.560000,5.660000,0.189951,0.486201,10.982022,0.000000,0.535617,-0.000000,19.206835,-15.426903,-41.195972
2654.570000,5.670000,0.128765,0.479784,10.918975,0.000000,0.506324,0.000000,19.421894,-15.426903,-41.095021
2654.580000,5.680000,0.070911,0.471802,10.841164,0.000000,0.470430,-0.000000,19.623015,-15.426903,-40.999365
2654.590000,5.690000,0.017200,0.462280,10.749655,0.000000,0.428403,0.000000,19.807676,-15.426903,-40.910471
2654.600000,5.700000,-0.031688,0.451252,10.645701,0.000000,0.380791,-0.000000,19.973577,-15.426903,-40.829731
2654.610000,5.710000,-0.075212,0.438751,10.530718,0.000000,0.328215,0.000000,20.118666,-15.426903,-40.758434
2654.620000,5.720000,-0.112980,0.424819,10.406265,0.000000,0.271360,0.000000,20.241163,-15.426903,-40.697739
2654.630000,5.730000,-0.144749,0.409501,10.274019,0.000000,0.210967,-0.000000,20.339573,-15.426903,-40.648646
2654.640000,5.740000,-0.170418,0.392848,10.135753,0.000000,0.147824,-0.000000,20.412701,-15.426903,-40.611973
2654.650000,5.750000,-0.190021,0.374913,9.993307,0.000000,0.082754,-0.000000,20.459661,-15.426903,-40.588335
2654.660000,5.760000,-0.203716,0.355756,9.848568,0.000000,0.016605,0.000000,20.479889,-15.426903,-40.578133
2654.670000,5.770000,-0.211765,0.335438,9.703439,0.000000,-0.049761,0.000000,20.473139,-15.426903,-40.581538
2654.680000,5.780000,-0.214516,0.314026,9.559822,0.000000,-0.115477,-0.000000,20.439495,-15.426903,-40.598494
2654.690000,5.790000,-0.212386,0.291589,9.419587,0.000000,-0.179689,-0.000000,20.379360,-15.426903,-40.628714
2654.700000,5.800000,-0.205836,0.268202,9.284556,0.000000,-0.241557,0.000000,20.293461,-15.426903,-40.671687
2654.710000,5.810000,-0.195356,0.243940,9.156477,0.000000,-0.300277,-0.000000,20.182839,-15.426903,-40.726695
2654.720000,5.820000,-0.181444,0.218882,9.037003,0.000000,-0.355082,-0.000000,20.048841,-15.426903,-40.792826
2654.730000,5.830000,-0.164590,0.193110,8.927674,0.000000,-0.405258,0.000000,19.893106,-15.426903,-40.868998
2654.740000,5.840000,-0.145266,0.166708,8.829898,0.000000,-0.450150,-0.000000,19.717553,-15.426903,-40.953984
2654.750000,5.850000,-0.123917,0.139762,8.744934,0.000000,-0.489175,0.000000,19.524359,-15.426903,-41.046438
2654.760000,5.860000,-0.100952,0.112361,8.673875,0.000000,-0.521822,-0.000000,19.315941,-15.426903,-41.144928
2654.770000,5.870000,-0.076748,0.084593,8.617635,0.000000,-0.547666,0.000000,19.094924,-15.426903,-41.247964
2654.780000,5.880000,-0.051648,0.056549,8.576938,0.000000,-0.566371,0.000000,18.864115,-15.426903,-41.354030
2654.790000,5.890000,-0.025967,0.028321,8.552308,0.000000,-0.577692,-0.000000,18.626473,-15.426903,-41.461611
2654.800000,5.900000,0.000000,-0.000000,8.544063,0.000000,-0.581482,0.000000,18.385067,-15.426903,-41.569219
2654.810000,5.910000,0.025967,-0.028321,8.552308,0.000000,-0.577692,0.000000,18.143038,-15.426903,-41.675422
2654.820000,5.920000,0.051648,-0.056549,8.576938,0.000000,-0.566371,-0.000000,17.903564,-15.426903,-41.778859
2654.830000,5.930000,0.076748,-0.084593,8.617635,0.000000,-0.547666,-0.000000,17.669807,-15.426903,-41.878259
2654.840000,5.940000,0.100952,-0.112361,8.673875,0.000000,-0.521822,0.000000,17.444879,-15.426903,-41.972454
2654.850000,5.950000,0.123917,-0.139762,8.744934,0.000000,-0.489175,-0.000000,17.231791,-15.426903,-42.060386
2654.860000,5.960000,0.145266,-0.166708,8.829898,0.000000,-0.450150,0.000000,17.033412,-15.426903,-42.141115
2654.870000,5.970000,0.164590,-0.193110,8.927674,0.000000,-0.405258,-0.000000,16.852427,-15.426903,-42.213817
2654.880000,5.980000,0.181444,-0.218882,9.037003,0.000000,-0.355082,0.000000,16.691295,-15.426903,-42.277788
2654.890000,5.990000,0.195356,-0.243940,9.156477,0.000000,-0.300277,0.000000,16.552216,-15.426903,-42.332432
2654.900000,6.000000,0.205836,-0.268202,9.284556,0.000000,-0.241557,-0.000000,16.437094,-15.426903,-42.377265
2654.910000,6.010000,0.212386,-0.291589,9.419587,0.000000,-0.179689,0.000000,16.347510,-15.426903,-42.411904
2654.920000,6.020000,0.214516,-0.314026,9.559822,0.000000,-0.115477,0.000000,16.284694,-15.426903,-42.436063
2654.930000,6.030000,0.211765,-0.335438,9.703439,0.000000,-0.049761,-0.000000,16.249514,-15.426903,-42.449546
2654.940000,6.040000,0.203716,-0.355756,9.848568,0.000000,0.016605,-0.000000,16.242453,-15.426903,-42.452248
2654.950000,6.050000,0.190021,-0.374913,9.993307,0.000000,0.082754,0.000000,16.263610,-15.426903,-42.444148
2654.960000,6.060000,0.170418,-0.392848,10.135753,0.000000,0.147824,0.000000,16.312693,-15.426903,-42.425308
2654.970000,6.070000,0.144749,-0.409501,10.274019,0.000000,0.210967,0.000000,16.389024,-15.426903,-42.395879
2654.980000,6.080000,0.112980,-0.424819,10.406265,0.000000,0.271360,-0.000000,16.491554,-15.426903,-42.356101
2654.990000,6.090000,0.075212,-0.438751,10.530718,0.000000,0.328215,-0.000000,16.618873,-15.426903,-42.306308
2655.000000,6.100000,0.031688,-0.451252,10.645701,0.000000,0.380791,0.000000,16.769235,-15.426903,-42.246934
2655.010000,6.110000,-0.017200,-0.462280,10.749655,0.000000,0.428403,-0.000000,16.940586,-15.426903,-42.178516
2655.020000,6.120000,-0.070911,-0.471802,10.841164,0.000000,0.470430,0.000000,17.130591,-15.426903,-42.101705
2655.030000,6.130000,-0.128765,-0.479784,10.918975,0.000000,0.506324,-0.000000,17.336672,-15.426903,-42.017264
2655.040000,6.140000,-0.189951,-0.486201,10.982022,0.000000,0.535617,0.000000,17.556049,-15.426903,-41.926076
2655.050000,6.150000,-0.253546,-0.491032,11.029441,0.000000,0.557928,0.000000,17.785774,-15.426903,-41.829139
2655.060000,6.160000,-0.318537,-0.494262,11.060585,0.000000,0.572966,-0.000000,18.022783,-15.426903,-41.727568
2655.070000,6.170000,-0.383841,-0.495879,11.075037,0.000000,0.580534,-0.000000,18.263932,-15.426903,-41.622584
2655.080000,6.180000,-0.448339,-0.495879,11.072614,0.000000,0.580534,0.000000,18.506045,-15.426903,-41.515503
2655.090000,6.190000,-0.510901,-0.494262,11.053370,0.000000,0.572966,0.000000,18.745959,-15.426903,-41.407725
2655.100000,6.200000,-0.570418,-0.491032,11.017598,0.000000,0.557928,-0.000000,18.980562,-15.426903,-41.300714
2655.110000,6.210000,-0.625830,-0.486201,10.965820,0.000000,0.535617,-0.000000,19.206835,-15.426903,-41.195972
2655.120000,6.220000,-0.676155,-0.479784,10.898780,0.000000,0.506324,0.000000,19.421894,-15.426903,-41.095021
2655.130000,6.230000,-0.720510,-0.471802,10.817427,0.000000,0.470430,-0.000000,19.623015,-15.426903,-40.999365
2655.140000,6.240000,-0.758137,-0.462280,10.722901,0.000000,0.428403,0.000000,19.807676,-15.426903,-40.910471
2655.150000,6.250000,-0.788415,-0.451252,10.616514,0.000000,0.380791,-0.000000,19.973577,-15.426903,-40.829731
2655.160000,6.260000,-0.810870,-0.438751,10.499723,0.000000,0.328215,0.000000,20.118666,-15.426903,-40.758434
2655.170000,6.270000,-0.825186,-0.424819,10.374111,0.000000,0.271360,0.000000,20.241163,-15.426903,-40.697739
2655.180000,6.280000,-0.831198,-0.409501,10.241364,0.000000,0.210967,-0.000000,20.339573,-15.426903,-40.648646
2655.190000,6.290000,-0.828893,-0.392848,10.103240,0.000000,0.147824,-0.000000,20.412701,-15.426903,-40.611973
2655.200000,6.300000,-0.818399,-0.374913,9.961552,0.000000,0.082754,-0.000000,20.459661,-15.426903,-40.588335
2655.210000,6.310000,-0.799969,-0.355756,9.818138,0.000000,0.016605,0.000000,20.479889,-15.426903,-40.578133
2655.220000,6.320000,-0.773970,-0.335438,9.674841,0.000000,-0.049761,0.000000,20.473139,-15.426903,-40.581538
2655.230000,6.330000,-0.740856,-0.314026,9.533485,0.000000,-0.115477,-0.000000,20.439495,-15.426903,-40.598494
2655.240000,6.340000,-0.701155,-0.291589,9.395856,0.000000,-0.179689,-0.000000,20.379360,-15.426903,-40.628714
2655.250000,6.350000,-0.655448,-0.268202,9.263679,0.000000,-0.241557,0.000000,20.293461,-15.426903,-40.671687
2655.260000,6.360000,-0.604345,-0.243940,9.138600,0.000000,-0.300277,-0.000000,20.182839,-15.426903,-40.726695
2655.270000,6.370000,-0.548471,-0.218882,9.022168,0.000000,-0.355082,-0.000000,20.048841,-15.426903,-40.792826
2655.280000,6.380000,-0.488449,-0.193110,8.915821,0.000000,-0.405258,0.000000,19.893106,-15.426903,-40.868998
2655.290000,6.390000,-0.424889,-0.166708,8.820866,0.000000,-0.450150,-0.000000,19.717553,-15.426903,-40.953984
2655.300000,6.400000,-0.358377,-0.139762,8.738466,0.000000,-0.489175,0.000000,19.524359,-15.426903,-41.046438
2655.310000,6.410000,-0.289469,-0.112361,8.669631,0.000000,-0.521822,-0.000000,19.315941,-15.426903,-41.144928
2655.320000,6.420000,-0.218691,-0.084593,8.615201,0.000000,-0.547666,0.000000,19.094924,-15.426903,-41.247964
2655.330000,6.430000,-0.146542,-0.056549,8.575841,0.000000,-0.566371,0.000000,18.864115,-15.426903,-41.354030
2655.340000,6.440000,-0.073494,-0.028321,8.552032,0.000000,-0.577692,-0.000000,18.626473,-15.426903,-41.461611
2655.350000,6.450000,0.000000,0.000000,8.544063,0.000000,-0.581482,0.000000,18.385067,-15.426903,-41.569219
2655.360000,6.460000,0.073494,0.028321,8.552032,0.000000,-0.577692,0.000000,18.143038,-15.426903,-41.675422
2655.370000,6.470000,0.146542,0.056549,8.575841,0.000000,-0.566371,-0.000000,17.903564,-15.426903,-41.778859
2655.380000,6.480000,0.218691,0.084593,8.615201,0.000000,-0.547666,-0.000000,17.669807,-15.426903,-41.878259
2655.390000,6.490000,0.289469,0.112361,8.669631,0.000000,-0.521822,0.000000,17.444879,-15.426903,-41.972454
2655.400000,6.500000,0.358377,0.139762,8.738466,0.000000,-0.489175,-0.000000,17.231791,-15.426903,-42.060386
2655.410000,6.510000,0.424889,0.166708,8.820866,0.000000,-0.450150,0.000000,17.033412,-15.426903,-42.141115
2655.420000,6.520000,0.488449,0.193110,8.915821,0.000000,-0.405258,0.000000,16.852427,-15.426903,-42.213817
2655.430000,6.530000,0.548471,0.218882,9.022168,0.000000,-0.355082,0.000000,16.691295,-15.426903,-42.277788
2655.440000,6.540000,0.604345,0.243940,9.138600,0.000000,-0.300277,0.000000,16.552216,-15.426903,-42.332432
2655.450000,6.550000,0.655448,0.268202,9.263679,0.000000,-0.241557,-0.000000,16.437094,-15.426903,-42.377265
2655.460000,6.560000,0.701155,0.291589,9.395856,0.000000,-0.179689,0.000000,16.347510,-15.426903,-42.411904
2655.470000,6.570000,0.740856,0.314026,9.533485,0.000000,-0.115477,0.000000,16.284694,-15.426903,-42.436063
2655.480000,6.580000,0.773970,0.335438,9.674841,0.000000,-0.049761,-0.000000,16.249514,-15.426903,-42.449546
2655.490000,6.590000,0.799969,0.355756,9.818138,0.000000,0.016605,-0.000000,16.242453,-15.426903,-42.452248
2655.500000,6.600000,0.818399,0.374913,9.961552,0.000000,0.082754,0.000000,16.263610,-15.426903,-42.444148
2655.510000,6.610000,0.828893,0.392848,10.103240,0.000000,0.147824,0.000000,16.312693,-15.426903,-42.425308
2655.520000,6.620000,0.831198,0.409501,10.241364,0.000000,0.210967,0.000000,16.389024,-15.426903,-42.395879
2655.530000,6.630000,0.825186,0.424819,10.374111,0.000000,0.271360,-0.000000,16.491554,-15.426903,-42.356101
2655.540000,6.640000,0.810870,0.438751,10.499723,0.000000,0.328215,-0.000000,16.618873,-15.426903,-42.306308
2655.550000,6.650000,0.788415,0.451252,10.616514,0.000000,0.380791,0.000000,16.769235,-15.426903,-42.246934
2655.560000,6.660000,0.758137,0.462280,10.722901,0.000000,0.428403,-0.000000,16.940586,-15.426903,-42.178516
2655.570000,6.670000,0.720510,0.471802,10.817427,0.000000,0.470430,0.000000,17.130591,-15.426903,-42.101705
2655.580000,6.680000,0.676155,0.479784,10.898780,0.000000,0.506324,-0.000000,17.336672,-15.426903,-42.017264
2655.590000,6.690000,0.625830,0.486201,10.965820,0.000000,0.535617,0.000000,17.556049,-15.426903,-41.926076
2655.600000,6.700000,0.570418,0.491032,11.017598,0.000000,0.557928,0.000000,17.785774,-15.426903,-41.829139
2655.610000,6.710000,0.510901,0.494262,11.053370,0.000000,0.572966,-0.000000,18.022783,-15.426903,-41.727568
2655.620000,6.720000,0.448339,0.495879,11.072614,0.000000,0.580534,-0.000000,18.263932,-15.426903,-41.622584
2655.630000,6.730000,0.383841,0.495879,11.075037,0.000000,0.580534,0.000000,18.506045,-15.426903,-41.515503
2655.640000,6.740000,0.318537,0.494262,11.060585,0.000000,0.572966,0.000000,18.745959,-15.426903,-41.407725
2655.650000,6.750000,0.253546,0.491032,11.029441,0.000000,0.557928,-0.000000,18.980562,-15.426903,-41.300714
2655.660000,6.760000,0.189951,0.486201,10.982022,0.000000,0.535617,-0.000000,19.206835,-15.426903,-41.195972
2655.670000,6.770000,0.128765,0.479784,10.918975,0.000000,0.506324,0.000000,19.421894,-15.426903,-41.095021
2655.680000,6.780000,0.070911,0.471802,10.841164,0.000000,0.470430,-0.000000,19.623015,-15.426903,-40.999365
2655.690000,6.790000,0.017200,0.462280,10.749655,0.000000,0.428403,0.000000,19.807676,-15.426903,-40.910471
2655.700000,6.800000,-0.031688,0.451252,10.645701,0.000000,0.380791,-0.000000,19.973577,-15.426903,-40.829731
2655.710000,6.810000,-0.075212,0.438751,10.530718,0.000000,0.328215,0.000000,20.118666,-15.426903,-40.758434
2655.720000,6.820000,-0.112980,0.424819,10.406265,0.000000,0.271360,0.000000,20.241163,-15.426903,-40.697739
2655.730000,6.830000,-0.144749,0.409501,10.274019,0.000000,0.210967,-0.000000,20.339573,-15.426903,-40.648646
2655.740000,6.840000,-0.170418,0.392848,10.135753,0.000000,0.147824,-0.000000,20.412701,-15.426903,-40.611973
2655.750000,6.850000,-0.190021,0.374913,9.993307,0.000000,0.082754,-0.000000,20.459661,-15.426903,-40.588335
2655.760000,6.860000,-0.203716,0.355756,9.848568,0.000000,0.016605,0.000000,20.479889,-15.426903,-40.578133
2655.770000,6.870000,-0.211765,0.335438,9.703439,0.000000,-0.049761,0.000000,20.473139,-15.426903,-40.581538
2655.780000,6.880000,-0.214516,0.314026,9.559822,0.000000,-0.115477,-0.000000,20.439495,-15.426903,-40.598494
2655.790000,6.890000,-0.212386,0.291589,9.419587,0.000000,-0.179689,-0.000000,20.379360,-15.426903,-40.628714
2655.800000,6.900000,-0.205836,0.268202,9.284556,0.000000,-0.241557,0.000000,20.293461,-15.426903,-40.671687
2655.810000,6.910000,-0.195356,0.243940,9.156477,0.000000,-0.300277,-0.000000,20.182839,-15.426903,-40.726695
2655.820000,6.920000,-0.181444,0.218882,9.037003,0.000000,-0.355082,-0.000000,20.048841,-15.426903,-40.792826
2655.830000,6.930000,-0.164590,0.193110,8.927674,0.000000,-0.405258,0.000000,19.893106,-15.426903,-40.868998
2655.840000,6.940000,-0.145266,0.166708,8.829898,0.000000,-0.450150,0.000000,19.717553,-15.426903,-40.953984
2655.850000,6.950000,-0.123917,0.139762,8.744934,0.000000,-0.489175,0.000000,19.524359,-15.426903,-41.046438
2655.860000,6.960000,-0.100952,0.112361,8.673875,0.000000,-0.521822,-0.000000,19.315941,-15.426903,-41.144928
2655.870000,6.970000,-0.076748,0.084593,8.617635,0.000000,-0.547666,0.000000,19.094924,-15.426903,-41.247964
2655.880000,6.980000,-0.051648,0.056549,8.576938,0.000000,-0.566371,0.000000,18.864115,-15.426903,-41.354030
2655.890000,6.990000,-0.025967,0.028321,8.552308,0.000000,-0.577692,-0.000000,18.626473,-15.426903,-41.461611
2655.900000,7.000000,0.000000,-0.000000,8.544063,0.000000,-0.581482,0.000000,18.385067,-15.426903,-41.569219
2655.910000,7.010000,0.025967,-0.028321,8.552308,0.000000,-0.577692,0.000000,18.143038,-15.426903,-41.675422
2655.920000,7.020000,0.051648,-0.056549,8.576938,0.000000,-0.566371,-0.000000,17.903564,-15.426903,-41.778859
2655.930000,7.030000,0.076748,-0.084593,8.617635,0.000000,-0.547666,-0.000000,17.669807,-15.426903,-41.878259
2655.940000,7.040000,0.100952,-0.112361,8.673875,0.000000,-0.521822,0.000000,17.444879,-15.426903,-41.972454
2655.950000,7.050000,0.123917,-0.139762,8.744934,0.000000,-0.489175,-0.000000,17.231791,-15.426903,-42.060386
2655.960000,7.060000,0.145266,-0.166708,8.829898,0.000000,-0.450150,0.000000,17.033412,-15.426903,-42.141115
2655.970000,7.070000,0.164590,-0.193110,8.927674,0.000000,-0.405258,-0.000000,16.852427,-15.426903,-42.213817
2655.980000,7.080000,0.181444,-0.218882,9.037003,0.000000,-0.355082,0.000000,16.691295,-15.426903,-42.277788
2655.990000,7.090000,0.195356,-0.243940,9.156477,0.000000,-0.300277,0.000000,16.552216,-15.426903,-42.332432
2656.000000,7.100000,0.205836,-0.268202,9.284556,0.000000,-0.241557,-0.000000,16.437094,-15.426903,-42.377265
2656.010000,7.110000,0.212386,-0.291589,9.419587,0.000000,-0.179689,0.000000,16.347510,-15.426903,-42.411904
2656.020000,7.120000,0.214516,-0.314026,9.559822,0.000000,-0.115477,0.000000,16.284694,-15.426903,-42.436063
2656.030000,7.130000,0.211765,-0.335438,9.703439,0.000000,-0.049761,-0.000000,16.249514,-15.426903,-42.449546
2656.040000,7.140000,0.203716,-0.355756,9.848568,0.000000,0.016605,-0.000000,16.242453,-15.426903,-42.452248
2656.050000,7.150000,0.190021,-0.374913,9.993307,0.000000,0.082754,0.000000,16.263610,-15.426903,-42.444148
2656.060000,7.160000,0.170418,-0.392848,10.135753,0.000000,0.147824,0.000000,16.312693,-15.426903,-42.425308
2656.070000,7.170000,0.144749,-0.409501,10.274019,0.000000,0.210967,0.000000,16.389024,-15.426903,-42.395879
2656.080000,7.180000,0.112980,-0.424819,10.406265,0.000000,0.271360,-0.000000,16.491554,-15.426903,-42.356101
2656.090000,7.190000,0.075212,-0.438751,10.530718,0.000000,0.328215,-0.000000,16.618873,-15.426903,-42.306308
2656.100000,7.200000,0.031688,-0.451252,10.645701,0.000000,0.380791,0.000000,16.769235,-15.426903,-42.246934
2656.110000,7.210000,-0.017200,-0.462280,10.749655,0.000000,0.428403,-0.000000,16.940586,-15.426903,-42.178516
2656.120000,7.220000,-0.070911,-0.471802,10.841164,0.000000,0.470430,0.000000,17.130591,-15.426903,-42.101705
2656.130000,7.230000,-0.128765,-0.479784,10.918975,0.000000,0.506324,-0.000000,17.336672,-15.426903,-42.017264
2656.140000,7.240000,-0.189951,-0.486201,10.982022,0.000000,0.535617,0.000000,17.556049,-15.426903,-41.926076
2656.150000,7.250000,-0.253546,-0.491032,11.029441,0.000000,0.557928,0.000000,17.785774,-15.426903,-41.829139
2656.160000,7.260000,-0.318537,-0.494262,11.060585,0.000000,0.572966,-0.000000,18.022783,-15.426903,-41.727568
2656.170000,7.270000,-0.383841,-0.495879,11.075037,0.000000,0.580534,-0.000000,18.263932,-15.426903,-41.622584
2656.180000,7.280000,-0.448339,-0.495879,11.072614,0.000000,0.580534,0.000000,18.506045,-15.426903,-41.515503
2656.190000,7.290000,-0.510901,-0.494262,11.053370,0.000000,0.572966,0.000000,18.745959,-15.426903,-41.407725
2656.200000,7.300000,-0.570418,-0.491032,11.017598,0.000000,0.557928,-0.000000,18.980562,-15.426903,-41.300714
2656.210000,7.310000,-0.625830,-0.486201,10.965820,0.000000,0.535617,-0.000000,19.206835,-15.426903,-41.195972
2656.220000,7.320000,-0.676155,-0.479784,10.898780,0.000000,0.506324,0.000000,19.421894,-15.426903,-41.095021
2656.230000,7.330000,-0.720510,-0.471802,10.817427,0.000000,0.470430,-0.000000,19.623015,-15.426903,-40.999365
2656.240000,7.340000,-0.758137,-0.462280,10.722901,0.000000,0.428403,0.000000,19.807676,-15.426903,-40.910471
2656.250000,7.350000,-0.788415,-0.451252,10.616514,0.000000,0.380791,-0.000000,19.973577,-15.426903,-40.829731
2656.260000,7.360000,-0.810870,-0.438751,10.499723,0.000000,0.328215,0.000000,20.118666,-15.426903,-40.758434
2656.270000,7.370000,-0.825186,-0.424819,10.374111,0.000000,0.271360,0.000000,20.241163,-15.426903,-40.697739
2656.280000,7.380000,-0.831198,-0.409501,10.241364,0.000000,0.210967,-0.000000,20.339573,-15.426903,-40.648646
2656.290000,7.390000,-0.828893,-0.392848,10.103240,0.000000,0.147824,-0.000000,20.412701,-15.426903,-40.611973
2656.300000,7.400000,-0.818399,-0.374913,9.961552,0.000000,0.082754,-0.000000,20.459661,-15.426903,-40.588335
2656.310000,7.410000,-0.799969,-0.355756,9.818138,0.000000,0.016605,0.000000,20.479889,-15.426903,-40.578133
2656.320000,7.420000,-0.773970,-0.335438,9.674841,0.000000,-0.049761,0.000000,20.473139,-15.426903,-40.581538
2656.330000,7.430000,-0.740856,-0.314026,9.533485,0.000000,-0.115477,-0.000000,20.439495,-15.426903,-40.598494
2656.340000,7.440000,-0.701155,-0.291589,9.395856,0.000000,-0.179689,-0.000000,20.379360,-15.426903,-40.628714
2656.350000,7.450000,-0.655448,-0.268202,9.263679,0.000000,-0.241557,0.000000,20.293461,-15.426903,-40.671687
2656.360000,7.460000,-0.604345,-0.243940,9.138600,0.000000,-0.300277,-0.000000,20.182839,-15.426903,-40.726695
2656.370000,7.470000,-0.548471,-0.218882,9.022168,0.000000,-0.355082,-0.000000,20.048841,-15.426903,-40.792826
2656.380000,7.480000,-0.488449,-0.193110,8.915821,0.000000,-0.405258,0.000000,19.893106,-15.426903,-40.868998
2656.390000,7.490000,-0.424889,-0.166708,8.820866,0.000000,-0.450150,0.000000,19.717553,-15.426903,-40.953984
2656.400000,7.500000,-0.358377,-0.139762,8.738466,0.000000,-0.489175,0.000000,19.524359,-15.426903,-41.046438
2656.410000,7.510000,-0.289469,-0.112361,8.669631,0.000000,-0.521822,-0.000000,19.315941,-15.426903,-41.144928
2656.420000,7.520000,-0.218691,-0.084593,8.615201,0.000000,-0.547666,0.000000,19.094924,-15.426903,-41.247964
2656.430000,7.530000,-0.146542,-0.056549,8.575841,0.000000,-0.566371,0.000000,18.864115,-15.426903,-41.354030
2656.440000,7.540000,-0.073494,-0.028321,8.552032,0.000000,-0.577692,-0.000000,18.626473,-15.426903,-41.461611
2656.450000,7.550000,-0.000000,0.000000,8.544063,0.000000,-0.581482,0.000000,18.385067,-15.426903,-41.569219
2656.460000,7.560000,0.073494,0.028321,8.552032,0.000000,-0.577692,0.000000,18.143038,-15.426903,-41.675422
2656.470000,7.570000,0.146542,0.056549,8.575841,0.000000,-0.566371,-0.000000,17.903564,-15.426903,-41.778859
2656.480000,7.580000,0.218691,0.084593,8.615201,0.000000,-0.547666,-0.000000,17.669807,-15.426903,-41.878259
2656.490000,7.590000,0.289469,0.112361,8.669631,0.000000,-0.521822,0.000000,17.444879,-15.426903,-41.972454
2656.500000,7.600000,0.358377,0.139762,8.738466,0.000000,-0.489175,-0.000000,17.231791,-15.426903,-42.060386
2656.510000,7.610000,0.424889,0.166708,8.820866,0.000000,-0.450150,0.000000,17.033412,-15.426903,-42.141115
2656.520000,7.620000,0.488449,0.193110,8.915821,0.000000,-0.405258,-0.000000,16.852427,-15.426903,-42.213817
2656.530000,7.630000,0.548471,0.218882,9.022168,0.000000,-0.355082,0.000000,16.691295,-15.426903,-42.277788
2656.540000,7.640000,0.604345,0.243940,9.138600,0.000000,-0.300277,0.000000,16.552216,-15.426903,-42.332432
2656.550000,7.650000,0.655448,0.268202,9.263679,0.000000,-0.241557,-0.000000,16.437094,-15.426903,-42.377265
2656.560000,7.660000,0.701155,0.291589,9.395856,0.000000,-0.179689,0.000000,16.347510,-15.426903,-42.411904
2656.570000,7.670000,0.740856,0.314026,9.533485,0.000000,-0.115477,0.000000,16.284694,-15.426903,-42.436063
2656.580000,7.680000,0.773970,0.335438,9.674841,0.000000,-0.049761,-0.000000,16.249514,-15.426903,-42.449546
2656.590000,7.690000,0.799969,0.355756,9.818138,0.000000,0.016605,-0.000000,16.242453,-15.426903,-42.452248
2656.600000,7.700000,0.818399,0.374913,9.961552,0.000000,0.082754,0.000000,16.263610,-15.426903,-42.444148
2656.610000,7.710000,0.828893,0.392848,10.103240,0.000000,0.147824,0.000000,16.312693,-15.426903,-42.425308
2656.620000,7.720000,0.831198,0.409501,10.241364,0.000000,0.210967,0.000000,16.389024,-15.426903,-42.395879
2656.630000,7.730000,0.825186,0.424819,10.374111,0.000000,0.271360,-0.000000,16.491554,-15.426903,-42.356101
2656.640000,7.740000,0.810870,0.438751,10.499723,0.000000,0.328215,-0.000000,16.618873,-15.426903,-42.306308
2656.650000,7.750000,0.788415,0.451252,10.616514,0.000000,0.380791,0.000000,16.769235,-15.426903,-42.246934
2656.660000,7.760000,0.758137,0.462280,10.722901,0.000000,0.428403,-0.000000,16.940586,-15.426903,-42.178516
2656.670000,7.770000,0.720510,0.471802,10.817427,0.000000,0.470430,0.000000,17.130591,-15.426903,-42.101705
2656.680000,7.780000,0.676155,0.479784,10.898780,0.000000,0.506324,-0.000000,17.336672,-15.426903,-42.017264
2656.690000,7.790000,0.625830,0.486201,10.965820,0.000000,0.535617,0.000000,17.556049,-15.426903,-41.926076
2656.700000,7.800000,0.570418,0.491032,11.017598,0.000000,0.557928,0.000000,17.785774,-15.426903,-41.829139
2656.710000,7.810000,0.510901,0.494262,11.053370,0.000000,0.572966,-0.000000,18.022783,-15.426903,-41.727568
2656.720000,7.820000,0.448339,0.495879,11.072614,0.000000,0.580534,-0.000000,18.263932,-15.426903,-41.622584
2656.730000,7.830000,0.383841,0.495879,11.075037,0.000000,0.580534,0.000000,18.506045,-15.426903,-41.515503
2656.740000,7.840000,0.318537,0.494262,11.060585,0.000000,0.572966,0.000000,18.745959,-15.426903,-41.407725
2656.750000,7.850000,0.253546,0.491032,11.029441,0.000000,0.557928,-0.000000,18.980562,-15.426903,-41.300714
2656.760000,7.860000,0.189951,0.486201,10.982022,0.000000,0.535617,-0.000000,19.206835,-15.426903,-41.195972
2656.770000,7.870000,0.128765,0.479784,10.918975,0.000000,0.506324,0.000000,19.421894,-15.426903,-41.095021
2656.780000,7.880000,0.070911,0.471802,10.841164,0.000000,0.470430,-0.000000,19.623015,-15.426903,-40.999365
2656.790000,7.890000,0.017200,0.462280,10.749655,0.000000,0.428403,0.000000,19.807676,-15.426903,-40.910471
2656.800000,7.900000,-0.031688,0.451252,10.645701,0.000000,0.380791,-0.000000,19.973577,-15.426903,-40.829731
2656.810000,7.910000,-0.075212,0.438751,10.530718,0.000000,0.328215,0.000000,20.118666,-15.426903,-40.758434
2656.820000,7.920000,-0.112980,0.424819,10.406265,0.000000,0.271360,0.000000,20.241163,-15.426903,-40.697739
2656.830000,7.930000,-0.144749,0.409501,10.274019,0.000000,0.210967,-0.000000,20.339573,-15.426903,-40.648646
2656.840000,7.940000,-0.170418,0.392848,10.135753,0.000000,0.147824,-0.000000,20.412701,-15.426903,-40.611973
2656.850000,7.950000,-0.190021,0.374913,9.993307,0.000000,0.082754,-0.000000,20.459661,-15.426903,-40.588335
2656.860000,7.960000,-0.203716,0.355756,9.848568,0.000000,0.016605,0.000000,20.479889,-15.426903,-40.578133
2656.870000,7.970000,-0.211765,0.335438,9.703439,0.000000,-0.049761,0.000000,20.473139,-15.426903,-40.581538
2656.880000,7.980000,-0.214516,0.314026,9.559822,0.000000,-0.115477,-0.000000,20.439495,-15.426903,-40.598494
2656.890000,7.990000,-0.212386,0.291589,9.419587,0.000000,-0.179689,-0.000000,20.379360,-15.426903,-40.628714
2656.900000,8.000000,-0.205836,0.268202,9.284556,0.000000,-0.241557,0.000000,20.293461,-15.426903,-40.671687
2656.910000,8.010000,-0.195356,0.243940,9.156477,0.000000,-0.300277,-0.000000,20.182839,-15.426903,-40.726695
2656.920000,8.020000,-0.181444,0.218882,9.037003,0.000000,-0.355082,-0.000000,20.048841,-15.426903,-40.792826
2656.930000,8.030000,-0.164590,0.193110,8.927674,0.000000,-0.405258,0.000000,19.893106,-15.426903,-40.868998
2656.940000,8.040000,-0.145266,0.166708,8.829898,0.000000,-0.450150,-0.000000,19.717553,-15.426903,-40.953984
2656.950000,8.050000,-0.123917,0.139762,8.744934,0.000000,-0.489175,0.000000,19.524359,-15.426903,-41.046438
2656.960000,8.060000,-0.100952,0.112361,8.673875,0.000000,-0.521822,-0.000000,19.315941,-15.426903,-41.144928
2656.970000,8.070000,-0.076748,0.084593,8.617635,0.000000,-0.547666,0.000000,19.094924,-15.426903,-41.247964
2656.980000,8.080000,-0.051648,0.056549,8.576938,0.000000,-0.566371,0.000000,18.864115,-15.426903,-41.354030
2656.990000,8.090000,-0.025967,0.028321,8.552308,0.000000,-0.577692,-0.000000,18.626473,-15.426903,-41.461611
2657.000000,8.100000,-0.000000,0.000000,8.544063,0.000000,-0.581482,0.000000,18.385067,-15.426903,-41.569219
2657.010000,8.110000,0.025967,-0.028321,8.552308,0.000000,-0.577692,0.000000,18.143038,-15.426903,-41.675422
2657.020000,8.120000,0.051648,-0.056549,8.576938,0.000000,-0.566371,-0.000000,17.903564,-15.426903,-41.778859
2657.030000,8.130000,0.076748,-0.084593,8.617635,0.000000,-0.547666,-0.000000,17.669807,-15.426903,-41.878259
2657.040000,8.140000,0.100952,-0.112361,8.673875,0.000000,-0.521822,0.000000,17.444879,-15.426903,-41.972454
2657.050000,8.150000,0.123917,-0.139762,8.744934,0.000000,-0.489175,-0.000000,17.231791,-15.426903,-42.060386
2657.060000,8.160000,0.145266,-0.166708,8.829898,0.000000,-0.450150,0.000000,17.033412,-15.426903,-42.141115
2657.070000,8.170000,0.164590,-0.193110,8.927674,0.000000,-0.405258,0.000000,16.852427,-15.426903,-42.213817
2657.080000,8.180000,0.181444,-0.218882,9.037003,0.000000,-0.355082,0.000000,16.691295,-15.426903,-42.277788
2657.090000,8.190000,0.195356,-0.243940,9.156477,0.000000,-0.300277,0.000000,16.552216,-15.426903,-42.332432
2657.100000,8.200000,0.205836,-0.268202,9.284556,0.000000,-0.241557,-0.000000,16.437094,-15.426903,-42.377265
2657.110000,8.210000,0.212386,-0.291589,9.419587,0.000000,-0.179689,0.000000,16.347510,-15.426903,-42.411904
2657.120000,8.220000,0.214516,-0.314026,9.559822,0.000000,-0.115477,0.000000,16.284694,-15.426903,-42.436063
2657.130000,8.230000,0.211765,-0.335438,9.703439,0.000000,-0.049761,-0.000000,16.249514,-15.426903,-42.449546
2657.140000,8.240000,0.203716,-0.355756,9.848568,0.000000,0.016605,-0.000000,16.242453,-15.426903,-42.452248
2657.150000,8.250000,0.190021,-0.374913,9.993307,0.000000,0.082754,0.000000,16.263610,-15.426903,-42.444148
2657.160000,8.260000,0.170418,-0.392848,10.135753,0.000000,0.147824,0.000000,16.312693,-15.426903,-42.425308
2657.170000,8.270000,0.144749,-0.409501,10.274019,0.000000,0.210967,0.000000,16.389024,-15.426903,-42.395879
2657.180000,8.280000,0.112980,-0.424819,10.406265,0.000000,0.271360,-0.000000,16.491554,-15.426903,-42.356101
2657.190000,8.290000,0.075212,-0.438751,10.530718,0.000000,0.328215,-0.000000,16.618873,-15.426903,-42.306308
2657.200000,8.300000,0.031688,-0.451252,10.645701,0.000000,0.380791,0.000000,16.769235,-15.426903,-42.246934
2657.210000,8.310000,-0.017200,-0.462280,10.749655,0.000000,0.428403,-0.000000,16.940586,-15.426903,-42.178516
2657.220000,8.320000,-0.070911,-0.471802,10.841164,0.000000,0.470430,0.000000,17.130591,-15.426903,-42.101705
2657.230000,8.330000,-0.128765,-0.479784,10.918975,0.000000,0.506324,-0.000000,17.336672,-15.426903,-42.017264
2657.240000,8.340000,-0.189951,-0.486201,10.982022,0.000000,0.535617,0.000000,17.556049,-15.426903,-41.926076
2657.250000,8.350000,-0.253546,-0.491032,11.029441,0.000000,0.557928,0.000000,17.785774,-15.426903,-41.829139
2657.260000,8.360000,-0.318537,-0.494262,11.060585,0.000000,0.572966,-0.000000,18.022783,-15.426903,-41.727568
2657.270000,8.370000,-0.383841,-0.495879,11.075037,0.000000,0.580534,-0.000000,18.263932,-15.426903,-41.622584
2657.280000,8.380000,-0.448339,-0.495879,11.072614,0.000000,0.580534,0.000000,18.506045,-15.426903,-41.515503
2657.290000,8.390000,-0.510901,-0.494262,11.053370,0.000000,0.572966,0.000000,18.745959,-15.426903,-41.407725
2657.300000,8.400000,-0.570418,-0.491032,11.017598,0.000000,0.557928,-0.000000,18.980562,-15.426903,-41.300714
2657.310000,8.410000,-0.625830,-0.486201,10.965820,0.000000,0.535617,-0.000000,19.206835,-15.426903,-41.195972
2657.320000,8.420000,-0.676155,-0.479784,10.898780,0.000000,0.506324,0.000000,19.421894,-15.426903,-41.095021
2657.330000,8.430000,-0.720510,-0.471802,10.817427,0.000000,0.470430,-0.000000,19.623015,-15.426903,-40.999365
2657.340000,8.440000,-0.758137,-0.462280,10.722901,0.000000,0.428403,0.000000,19.807676,-15.426903,-40.910471
2657.350000,8.450000,-0.788415,-0.451252,10.616514,0.000000,0.380791,-0.000000,19.973577,-15.426903,-40.829731
2657.360000,8.460000,-0.810870,-0.438751,10.499723,0.000000,0.328215,0.000000,20.118666,-15.426903,-40.758434
2657.370000,8.470000,-0.825186,-0.424819,10.374111,0.000000,0.271360,0.000000,20.241163,-15.426903,-40.697739
2657.380000,8.480000,-0.831198,-0.409501,10.241364,0.000000,0.210967,-0.000000,20.339573,-15.426903,-40.648646
2657.390000,8.490000,-0.828893,-0.392848,10.103240,0.000000,0.147824,-0.000000,20.412701,-15.426903,-40.611973
2657.400000,8.500000,-0.818399,-0.374913,9.961552,0.000000,0.082754,-0.000000,20.459661,-15.426903,-40.588335
2657.410000,8.510000,-0.799969,-0.355756,9.818138,0.000000,0.016605,0.000000,20.479889,-15.426903,-40.578133
2657.420000,8.520000,-0.773970,-0.335438,9.674841,0.000000,-0.049761,0.000000,20.473139,-15.426903,-40.581538
2657.430000,8.530000,-0.740856,-0.314026,9.533485,0.000000,-0.115477,-0.000000,20.439495,-15.426903,-40.598494
2657.440000,8.540000,-0.701155,-0.291589,9.395856,0.000000,-0.179689,-0.000000,20.379360,-15.426903,-40.628714
2657.450000,8.550000,-0.655448,-0.268202,9.263679,0.000000,-0.241557,0.000000,20.293461,-15.426903,-40.671687
2657.460000,8.560000,-0.604345,-0.243940,9.138600,0.000000,-0.300277,-0.000000,20.182839,-15.426903,-40.726695
2657.470000,8.570000,-0.548471,-0.218882,9.022168,0.000000,-0.355082,-0.000000,20.048841,-15.426903,-40.792826
2657.480000,8.580000,-0.488449,-0.193110,8.915821,0.000000,-0.405258,0.000000,19.893106,-15.426903,-40.868998
2657.490000,8.590000,-0.424889,-0.166708,8.820866,0.000000,-0.450150,0.000000,19.717553,-15.426903,-40.953984
2657.500000,8.600000,-0.358377,-0.139762,8.738466,0.000000,-0.489175,0.000000,19.524359,-15.426903,-41.046438
2657.510000,8.610000,-0.289469,-0.112361,8.669631,0.000000,-0.521822,-0.000000,19.315941,-15.426903,-41.144928
2657.520000,8.620000,-0.218691,-0.084593,8.615201,0.000000,-0.547666,0.000000,19.094924,-15.426903,-41.247964
2657.530000,8.630000,-0.146542,-0.056549,8.575841,0.000000,-0.566371,0.000000,18.864115,-15.426903,-41.354030
2657.540000,8.640000,-0.073494,-0.028321,8.552032,0.000000,-0.577692,-0.000000,18.626473,-15.426903,-41.461611
2657.550000,8.650000,-0.000000,0.000000,8.544063,0.000000,-0.581482,0.000000,18.385067,-15.426903,-41.569219
2657.560000,8.660000,0.073494,0.028321,8.552032,0.000000,-0.577692,0.000000,18.143038,-15.426903,-41.675422
2657.570000,8.670000,0.146542,0.056549,8.575841,0.000000,-0.566371,-0.000000,17.903564,-15.426903,-41.778859
2657.580000,8.680000,0.218691,0.084593,8.615201,0.000000,-0.547666,-0.000000,17.669807,-15.426903,-41.878259
2657.590000,8.690000,0.289469,0.112361,8.669631,0.000000,-0.521822,0.000000,17.444879,-15.426903,-41.972454
2657.600000,8.700000,0.358377,0.139762,8.738466,0.000000,-0.489175,-0.000000,17.231791,-15.426903,-42.060386
2657.610000,8.710000,0.424889,0.166708,8.820866,0.000000,-0.450150,0.000000,17.033412,-15.426903,-42.141115
2657.620000,8.720000,0.488449,0.193110,8.915821,0.000000,-0.405258,-0.000000,16.852427,-15.426903,-42.213817
2657.630000,8.730000,0.548471,0.218882,9.022168,0.000000,-0.355082,0.000000,16.691295,-15.426903,-42.277788
2657.640000,8.740000,0.604345,0.243940,9.138600,0.000000,-0.300277,0.000000,16.552216,-15.426903,-42.332432
2657.650000,8.750000,0.655448,0.268202,9.263679,0.000000,-0.241557,-0.000000,16.437094,-15.426903,-42.377265
2657.660000,8.760000,0.701155,0.291589,9.395856,0.000000,-0.179689,0.000000,16.347510,-15.426903,-42.411904
2657.670000,8.770000,0.740856,0.314026,9.533485,0.000000,-0.115477,0.000000,16.284694,-15.426903,-42.436063
2657.680000,8.780000,0.773970,0.335438,9.674841,0.000000,-0.049761,-0.000000,16.249514,-15.426903,-42.449546
2657.690000,8.790000,0.799969,0.355756,9.818138,0.000000,0.016605,-0.000000,16.242453,-15.426903,-42.452248
2657.700000,8.800000,0.818399,0.374913,9.961552,0.000000,0.082754,0.000000,16.263610,-15.426903,-42.444148
2657.710000,8.810000,0.828893,0.392848,10.103240,0.000000,0.147824,0.000000,16.312693,-15.426903,-42.425308
2657.720000,8.820000,0.831198,0.409501,10.241364,0.000000,0.210967,0.000000,16.389024,-15.426903,-42.395879
2657.730000,8.830000,0.825186,0.424819,10.374111,0.000000,0.271360,-0.000000,16.491554,-15.426903,-42.356101
2657.740000,8.840000,0.810870,0.438751,10.499723,0.000000,0.328215,-0.000000,16.618873,-15.426903,-42.306308
2657.750000,8.850000,0.788415,0.451252,10.616514,0.000000,0.380791,0.000000,16.769235,-15.426903,-42.246934
2657.760000,8.860000,0.758137,0.462280,10.722901,0.000000,0.428403,-0.000000,16.940586,-15.426903,-42.178516
2657.770000,8.870000,0.720510,0.471802,10.817427,0.000000,0.470430,0.000000,17.130591,-15.426903,-42.101705
2657.780000,8.880000,0.676155,0.479784,10.898780,0.000000,0.506324,-0.000000,17.336672,-15.426903,-42.017264
2657.790000,8.890000,0.625830,0.486201,10.965820,0.000000,0.535617,0.000000,17.556049,-15.426903,-41.926076
2657.800000,8.900000,0.570418,0.491032,11.017598,0.000000,0.557928,0.000000,17.785774,-15.426903,-41.829139
2657.810000,8.910000,0.510901,0.494262,11.053370,0.000000,0.572966,-0.000000,18.022783,-15.426903,-41.727568
2657.820000,8.920000,0.448339,0.495879,11.072614,0.000000,0.580534,-0.000000,18.263932,-15.426903,-41.622584
2657.830000,8.930000,0.383841,0.495879,11.075037,0.000000,0.580534,0.000000,18.506045,-15.426903,-41.515503
2657.840000,8.940000,0.318537,0.494262,11.060585,0.000000,0.572966,0.000000,18.745959,-15.426903,-41.407725
2657.850000,8.950000,0.253546,0.491032,11.029441,0.000000,0.557928,-0.000000,18.980562,-15.426903,-41.300714
2657.860000,8.960000,0.189951,0.486201,10.982022,0.000000,0.535617,-0.000000,19.206835,-15.426903,-41.195972
2657.870000,8.970000,0.128765,0.479784,10.918975,0.000000,0.506324,0.000000,19.421894,-15.426903,-41.095021
2657.880000,8.980000,0.070911,0.471802,10.841164,0.000000,0.470430,-0.000000,19.623015,-15.426903,-40.999365
2657.890000,8.990000,0.017200,0.462280,10.749655,0.000000,0.428403,0.000000,19.807676,-15.426903,-40.910471
2657.900000,9.000000,-0.031688,0.451252,10.645701,0.000000,0.380791,-0.000000,19.973577,-15.426903,-40.829731
2657.910000,9.010000,-0.075212,0.438751,10.530718,0.000000,0.328215,0.000000,20.118666,-15.426903,-40.758434
2657.920000,9.020000,-0.112980,0.424819,10.406265,0.000000,0.271360,0.000000,20.241163,-15.426903,-40.697739
2657.930000,9.030000,-0.144749,0.409501,10.274019,0.000000,0.210967,-0.000000,20.339573,-15.426903,-40.648646
2657.940000,9.040000,-0.170418,0.392848,10.135753,0.000000,0.147824,-0.000000,20.412701,-15.426903,-40.611973
2657.950000,9.050000,-0.190021,0.374913,9.993307,0.000000,0.082754,-0.000000,20.459661,-15.426903,-40.588335
2657.960000,9.060000,-0.203716,0.355756,9.848568,0.000000,0.016605,0.000000,20.479889,-15.426903,-40.578133
2657.970000,9.070000,-0.211765,0.335438,9.703439,0.000000,-0.049761,0.000000,20.473139,-15.426903,-40.581538
2657.980000,9.080000,-0.214516,0.314026,9.559822,0.000000,-0.115477,-0.000000,20.439495,-15.426903,-40.598494
2657.990000,9.090000,-0.212386,0.291589,9.419587,0.000000,-0.179689,-0.000000,20.379360,-15.426903,-40.628714
2658.000000,9.100000,-0.205836,0.268202,9.284556,0.000000,-0.241557,0.000000,20.293461,-15.426903,-40.671687
2658.010000,9.110000,-0.195356,0.243940,9.156477,0.000000,-0.300277,-0.000000,20.182839,-15.426903,-40.726695
2658.020000,9.120000,-0.181444,0.218882,9.037003,0.000000,-0.355082,-0.000000,20.048841,-15.426903,-40.792826
2658.030000,9.130000,-0.164590,0.193110,8.927674,0.000000,-0.405258,0.000000,19.893106,-15.426903,-40.868998
2658.040000,9.140000,-0.145266,0.166708,8.829898,0.000000,-0.450150,0.000000,19.717553,-15.426903,-40.953984
2658.050000,9.150000,-0.123917,0.139762,8.744934,0.000000,-0.489175,0.000000,19.524359,-15.426903,-41.046438
2658.060000,9.160000,-0.100952,0.112361,8.673875,0.000000,-0.521822,-0.000000,19.315941,-15.426903,-41.144928
2658.070000,9.170000,-0.076748,0.084593,8.617635,0.000000,-0.547666,0.000000,19.094924,-15.426903,-41.247964
2658.080000,9.180000,-0.051648,0.056549,8.576938,0.000000,-0.566371,0.000000,18.864115,-15.426903,-41.354030
2658.090000,9.190000,-0.025967,0.028321,8.552308,0.000000,-0.577692,-0.000000,18.626473,-15.426903,-41.461611
2658.100000,9.200000,-0.000000,0.000000,8.544063,0.000000,-0.581482,0.000000,18.385067,-15.426903,-41.569219
2658.110000,9.210000,0.025967,-0.028321,8.552308,0.000000,-0.577692,0.000000,18.143038,-15.426903,-41.675422
2658.120000,9.220000,0.051648,-0.056549,8.576938,0.000000,-0.566371,-0.000000,17.903564,-15.426903,-41.778859
2658.130000,9.230000,0.076748,-0.084593,8.617635,0.000000,-0.547666,-0.000000,17.669807,-15.426903,-41.878259
2658.140000,9.240000,0.100952,-0.112361,8.673875,0.000000,-0.521822,0.000000,17.444879,-15.426903,-41.972454
2658.150000,9.250000,0.123917,-0.139762,8.744934,0.000000,-0.489175,-0.000000,17.231791,-15.426903,-42.060386
2658.160000,9.260000,0.145266,-0.166708,8.829898,0.000000,-0.450150,0.000000,17.033412,-15.426903,-42.141115
2658.170000,9.270000,0.164590,-0.193110,8.927674,0.000000,-0.405258,0.000000,16.852427,-15.426903,-42.213817
2658.180000,9.280000,0.181444,-0.218882,9.037003,0.000000,-0.355082,0.000000,16.691295,-15.426903,-42.277788
2658.190000,9.290000,0.195356,-0.243940,9.156477,0.000000,-0.300277,0.000000,16.552216,-15.426903,-42.332432
2658.200000,9.300000,0.205836,-0.268202,9.284556,0.000000,-0.241557,-0.000000,16.437094,-15.426903,-42.377265
2658.210000,9.310000,0.212386,-0.291589,9.419587,0.000000,-0.179689,0.000000,16.347510,-15.426903,-42.411904
2658.220000,9.320000,0.214516,-0.314026,9.559822,0.000000,-0.115477,0.000000,16.284694,-15.426903,-42.436063
2658.230000,9.330000,0.211765,-0.335438,9.703439,0.000000,-0.049761,-0.000000,16.249514,-15.426903,-42.449546
2658.240000,9.340000,0.203716,-0.355756,9.848568,0.000000,0.016605,-0.000000,16.242453,-15.426903,-42.452248
2658.250000,9.350000,0.190021,-0.374913,9.993307,0.000000,0.082754,0.000000,16.263610,-15.426903,-42.444148
2658.260000,9.360000,0.170418,-0.392848,10.135753,0.000000,0.147824,0.000000,16.312693,-15.426903,-42.425308
2658.270000,9.370000,0.144749,-0.409501,10.274019,0.000000,0.210967,0.000000,16.389024,-15.426903,-42.395879
2658.280000,9.380000,0.112980,-0.424819,10.406265,0.000000,0.271360,-0.000000,16.491554,-15.426903,-42.356101
2658.290000,9.390000,0.075212,-0.438751,10.530718,0.000000,0.328215,-0.000000,16.618873,-15.426903,-42.306308
2658.300000,9.400000,0.031688,-0.451252,10.645701,0.000000,0.380791,0.000000,16.769235,-15.426903,-42.246934
2658.310000,9.410000,-0.017200,-0.462280,10.749655,0.000000,0.428403,-0.000000,16.940586,-15.426903,-42.178516
2658.320000,9.420000,-0.070911,-0.471802,10.841164,0.000000,0.470430,0.000000,17.130591,-15.426903,-42.101705
2658.330000,9.430000,-0.128765,-0.479784,10.918975,0.000000,0.506324,-0.000000,17.336672,-15.426903,-42.017264
2658.340000,9.440000,-0.189951,-0.486201,10.982022,0.000000,0.535617,0.000000,17.556049,-15.426903,-41.926076
2658.350000,9.450000,-0.253546,-0.491032,11.029441,0.000000,0.557928,0.000000,17.785774,-15.426903,-41.829139
2658.360000,9.460000,-0.318537,-0.494262,11.060585,0.000000,0.572966,-0.000000,18.022783,-15.426903,-41.727568
2658.370000,9.470000,-0.383841,-0.495879,11.075037,0.000000,0.580534,-0.000000,18.263932,-15.426903,-41.622584
2658.380000,9.480000,-0.448339,-0.495879,11.072614,0.000000,0.580534,0.000000,18.506045,-15.426903,-41.515503
2658.390000,9.490000,-0.510901,-0.494262,11.053370,0.000000,0.572966,0.000000,18.745959,-15.426903,-41.407725
2658.400000,9.500000,-0.570418,-0.491032,11.017598,0.000000,0.557928,-0.000000,18.980562,-15.426903,-41.300714
2658.410000,9.510000,-0.625830,-0.486201,10.965820,0.000000,0.535617,-0.000000,19.206835,-15.426903,-41.195972
2658.420000,9.520000,-0.676155,-0.479784,10.898780,0.000000,0.506324,0.000000,19.421894,-15.426903,-41.095021
2658.430000,9.530000,-0.720510,-0.471802,10.817427,0.000000,0.470430,-0.000000,19.623015,-15.426903,-40.999365
2658.440000,9.540000,-0.758137,-0.462280,10.722901,0.000000,0.428403,0.000000,19.807676,-15.426903,-40.910471
2658.450000,9.550000,-0.788415,-0.451252,10.616514,0.000000,0.380791,-0.000000,19.973577,-15.426903,-40.829731
2658.460000,9.560000,-0.810870,-0.438751,10.499723,0.000000,0.328215,0.000000,20.118666,-15.426903,-40.758434
2658.470000,9.570000,-0.825186,-0.424819,10.374111,0.000000,0.271360,0.000000,20.241163,-15.426903,-40.697739
2658.480000,9.580000,-0.831198,-0.409501,10.241364,0.000000,0.210967,-0.000000,20.339573,-15.426903,-40.648646
2658.490000,9.590000,-0.828893,-0.392848,10.103240,0.000000,0.147824,-0.000000,20.412701,-15.426903,-40.611973
2658.500000,9.600000,-0.818399,-0.374913,9.961552,0.000000,0.082754,-0.000000,20.459661,-15.426903,-40.588335
2658.510000,9.610000,-0.799969,-0.355756,9.818138,0.000000,0.016605,0.000000,20.479889,-15.426903,-40.578133
2658.520000,9.620000,-0.773970,-0.335438,9.674841,0.000000,-0.049761,0.000000,20.473139,-15.426903,-40.581538
2658.530000,9.630000,-0.740856,-0.314026,9.533485,0.000000,-0.115477,-0.000000,20.439495,-15.426903,-40.598494
2658.540000,9.640000,-0.701155,-0.291589,9.395856,0.000000,-0.179689,-0.000000,20.379360,-15.426903,-40.628714
2658.550000,9.650000,-0.655448,-0.268202,9.263679,0.000000,-0.241557,0.000000,20.293461,-15.426903,-40.671687
2658.560000,9.660000,-0.604345,-0.243940,9.138600,0.000000,-0.300277,-0.000000,20.182839,-15.426903,-40.726695
2658.570000,9.670000,-0.548471,-0.218882,9.022168,0.000000,-0.355082,-0.000000,20.048841,-15.426903,-40.792826
2658.580000,9.680000,-0.488449,-0.193110,8.915821,0.000000,-0.405258,0.000000,19.893106,-15.426903,-40.868998
2658.590000,9.690000,-0.424889,-0.166708,8.820866,0.000000,-0.450150,-0.000000,19.717553,-15.426903,-40.953984
2658.600000,9.700000,-0.358377,-0.139762,8.738466,0.000000,-0.489175,0.000000,19.524359,-15.426903,-41.046438
2658.610000,9.710000,-0.289469,-0.112361,8.669631,0.000000,-0.521822,-0.000000,19.315941,-15.426903,-41.144928
2658.620000,9.720000,-0.218691,-0.084593,8.615201,0.000000,-0.547666,0.000000,19.094924,-15.426903,-41.247964
2658.630000,9.730000,-0.146542,-0.056549,8.575841,0.000000,-0.566371,0.000000,18.864115,-15.426903,-41.354030
2658.640000,9.740000,-0.073494,-0.028321,8.552032,0.000000,-0.577692,-0.000000,18.626473,-15.426903,-41.461611
2658.650000,9.750000,0.000000,0.000000,8.544063,0.000000,-0.581482,0.000000,18.385067,-15.426903,-41.569219
2658.660000,9.760000,0.073494,0.028321,8.552032,0.000000,-0.577692,0.000000,18.143038,-15.426903,-41.675422
2658.670000,9.770000,0.146542,0.056549,8.575841,0.000000,-0.566371,-0.000000,17.903564,-15.426903,-41.778859
2658.680000,9.780000,0.218691,0.084593,8.615201,0.000000,-0.547666,-0.000000,17.669807,-15.426903,-41.878259
2658.690000,9.790000,0.289469,0.112361,8.669631,0.000000,-0.521822,0.000000,17.444879,-15.426903,-41.972454
2658.700000,9.800000,0.358377,0.139762,8.738466,0.000000,-0.489175,-0.000000,17.231791,-15.426903,-42.060386
2658.710000,9.810000,0.424889,0.166708,8.820866,0.000000,-0.450150,0.000000,17.033412,-15.426903,-42.141115
2658.720000,9.820000,0.488449,0.193110,8.915821,0.000000,-0.405258,-0.000000,16.852427,-15.426903,-42.213817
2658.730000,9.830000,0.548471,0.218882,9.022168,0.000000,-0.355082,0.000000,16.691295,-15.426903,-42.277788
2658.740000,9.840000,0.604345,0.243940,9.138600,0.000000,-0.300277,0.000000,16.552216,-15.426903,-42.332432
2658.750000,9.850000,0.655448,0.268202,9.263679,0.000000,-0.241557,-0.000000,16.437094,-15.426903,-42.377265
2658.760000,9.860000,0.701155,0.291589,9.395856,0.000000,-0.179689,0.000000,16.347510,-15.426903,-42.411904
2658.770000,9.870000,0.740856,0.314026,9.533485,0.000000,-0.115477,0.000000,16.284694,-15.426903,-42.436063
2658.780000,9.880000,0.773970,0.335438,9.674841,0.000000,-0.049761,-0.000000,16.249514,-15.426903,-42.449546
2658.790000,9.890000,0.799969,0.355756,9.818138,0.000000,0.016605,-0.000000,16.242453,-15.426903,-42.452248
2658.800000,9.900000,0.818399,0.374913,9.961552,0.000000,0.082754,0.000000,16.263610,-15.426903,-42.444148
2658.810000,9.910000,0.828893,0.392848,10.103240,0.000000,0.147824,0.000000,16.312693,-15.426903,-42.425308
2658.820000,9.920000,0.831198,0.409501,10.241364,0.000000,0.210967,0.000000,16.389024,-15.426903,-42.395879
2658.830000,9.930000,0.825186,0.424819,10.374111,0.000000,0.271360,-0.000000,16.491554,-15.426903,-42.356101
2658.840000,9.940000,0.810870,0.438751,10.499723,0.000000,0.328215,-0.000000,16.618873,-15.426903,-42.306308
2658.850000,9.950000,0.788415,0.451252,10.616514,0.000000,0.380791,0.000000,16.769235,-15.426903,-42.246934
2658.860000,9.960000,0.758137,0.462280,10.722901,0.000000,0.428403,-0.000000,16.940586,-15.426903,-42.178516
2658.870000,9.970000,0.720510,0.471802,10.817427,0.000000,0.470430,0.000000,17.130591,-15.426903,-42.101705
2658.880000,9.980000,0.676155,0.479784,10.898780,0.000000,0.506324,-0.000000,17.336672,-15.426903,-42.017264
2658.890000,9.990000,0.625830,0.486201,10.965820,0.000000,0.535617,0.000000,17.556049,-15.426903,-41.926076
2658.900000,10.000000,0.570418,0.491032,11.017598,0.000000,0.557928,0.000000,17.785774,-15.426903,-41.829139
2658.910000,10.010000,0.510901,0.494262,11.053370,0.000000,0.572966,-0.000000,18.022783,-15.426903,-41.727568
2658.920000,10.020000,0.448339,0.495879,11.072614,0.000000,0.580534,-0.000000,18.263932,-15.426903,-41.622584
2658.930000,10.030000,0.383841,0.495879,11.075037,0.000000,0.580534,0.000000,18.506045,-15.426903,-41.515503
2658.940000,10.040000,0.318537,0.494262,11.060585,0.000000,0.572966,0.000000,18.745959,-15.426903,-41.407725
2658.950000,10.050000,0.253546,0.491032,11.029441,0.000000,0.557928,-0.000000,18.980562,-15.426903,-41.300714
2658.960000,10.060000,0.189951,0.486201,10.982022,0.000000,0.535617,-0.000000,19.206835,-15.426903,-41.195972
2658.970000,10.070000,0.128765,0.479784,10.918975,0.000000,0.506324,0.000000,19.421894,-15.426903,-41.095021
2658.980000,10.080000,0.070911,0.471802,10.841164,0.000000,0.470430,-0.000000,19.623015,-15.426903,-40.999365
2658.990000,10.090000,0.017200,0.462280,10.749655,0.000000,0.428403,0.000000,19.807676,-15.426903,-40.910471
2659.000000,10.100000,-0.031688,0.451252,10.645701,0.000000,0.380791,-0.000000,19.973577,-15.426903,-40.829731
2659.010000,10.110000,-0.075212,0.438751,10.530718,0.000000,0.328215,0.000000,20.118666,-15.426903,-40.758434
2659.020000,10.120000,-0.112980,0.424819,10.406265,0.000000,0.271360,0.000000,20.241163,-15.426903,-40.697739
2659.030000,10.130000,-0.144749,0.409501,10.274019,0.000000,0.210967,-0.000000,20.339573,-15.426903,-40.648646
2659.040000,10.140000,-0.170418,0.392848,10.135753,0.000000,0.147824,-0.000000,20.412701,-15.426903,-40.611973
2659.050000,10.150000,-0.190021,0.374913,9.993307,0.000000,0.082754,-0.000000,20.459661,-15.426903,-40.588335
2659.060000,10.160000,-0.203716,0.355756,9.848568,0.000000,0.016605,0.000000,20.479889,-15.426903,-40.578133
2659.070000,10.170000,-0.211765,0.335438,9.703439,0.000000,-0.049761,0.000000,20.473139,-15.426903,-40.581538
2659.080000,10.180000,-0.214516,0.314026,9.559822,0.000000,-0.115477,-0.000000,20.439495,-15.426903,-40.598494
2659.090000,10.190000,-0.212386,0.291589,9.419587,0.000000,-0.179689,-0.000000,20.379360,-15.426903,-40.628714
2659.100000,10.200000,-0.205836,0.268202,9.284556,0.000000,-0.241557,0.000000,20.293461,-15.426903,-40.671687
2659.110000,10.210000,-0.195356,0.243940,9.156477,0.000000,-0.300277,-0.000000,20.182839,-15.426903,-40.726695
2659.120000,10.220000,-0.181444,0.218882,9.037003,0.000000,-0.355082,-0.000000,20.048841,-15.426903,-40.792826
2659.130000,10.230000,-0.164590,0.193110,8.927674,0.000000,-0.405258,0.000000,19.893106,-15.426903,-40.868998
2659.140000,10.240000,-0.145266,0.166708,8.829898,0.000000,-0.450150,0.000000,19.717553,-15.426903,-40.953984
2659.150000,10.250000,-0.123917,0.139762,8.744934,0.000000,-0.489175,0.000000,19.524359,-15.426903,-41.046438
2659.160000,10.260000,-0.100952,0.112361,8.673875,0.000000,-0.521822,-0.000000,19.315941,-15.426903,-41.144928
2659.170000,10.270000,-0.076748,0.084593,8.617635,0.000000,-0.547666,0.000000,19.094924,-15.426903,-41.247964
2659.180000,10.280000,-0.051648,0.056549,8.576938,0.000000,-0.566371,0.000000,18.864115,-15.426903,-41.354030
2659.190000,10.290000,-0.025967,0.028321,8.552308,0.000000,-0.577692,-0.000000,18.626473,-15.426903,-41.461611
2659.200000,10.300000,0.000000,0.000000,8.544063,0.000000,-0.581482,0.000000,18.385067,-15.426903,-41.569219
2659.210000,10.310000,0.025967,-0.028321,8.552308,0.000000,-0.577692,0.000000,18.143038,-15.426903,-41.675422
2659.220000,10.320000,0.051648,-0.056549,8.576938,0.000000,-0.566371,-0.000000,17.903564,-15.426903,-41.778859
2659.230000,10.330000,0.076748,-0.084593,8.617635,0.000000,-0.547666,-0.000000,17.669807,-15.426903,-41.878259
2659.240000,10.340000,0.100952,-0.112361,8.673875,0.000000,-0.521822,0.000000,17.444879,-15.426903,-41.972454
2659.250000,10.350000,0.123917,-0.139762,8.744934,0.000000,-0.489175,-0.000000,17.231791,-15.426903,-42.060386
2659.260000,10.360000,0.145266,-0.166708,8.829898,0.000000,-0.450150,0.000000,17.033412,-15.426903,-42.141115
2659.270000,10.370000,0.164590,-0.193110,8.927674,0.000000,-0.405258,0.000000,16.852427,-15.426903,-42.213817
2659.280000,10.380000,0.181444,-0.218882,9.037003,0.000000,-0.355082,0.000000,16.691295,-15.426903,-42.277788
2659.290000,10.390000,0.195356,-0.243940,9.156477,0.000000,-0.300277,0.000000,16.552216,-15.426903,-42.332432
2659.300000,10.400000,0.205836,-0.268202,9.284556,0.000000,-0.241557,-0.000000,16.437094,-15.426903,-42.377265
2659.310000,10.410000,0.212386,-0.291589,9.419587,0.000000,-0.179689,0.000000,16.347510,-15.426903,-42.411904
2659.320000,10.420000,0.214516,-0.314026,9.559822,0.000000,-0.115477,0.000000,16.284694,-15.426903,-42.436063
2659.330000,10.430000,0.211765,-0.335438,9.703439,0.000000,-0.049761,-0.000000,16.249514,-15.426903,-42.449546
2659.340000,10.440000,0.203716,-0.355756,9.848568,0.000000,0.016605,-0.000000,16.242453,-15.426903,-42.452248
2659.350000,10.450000,0.190021,-0.374913,9.993307,0.000000,0.082754,0.000000,16.263610,-15.426903,-42.444148
2659.360000,10.460000,0.170418,-0.392848,10.135753,0.000000,0.147824,0.000000,16.312693,-15.426903,-42.425308
2659.370000,10.470000,0.144749,-0.409501,10.274019,0.000000,0.210967,0.000000,16.389024,-15.426903,-42.395879
2659.380000,10.480000,0.112980,-0.424819,10.406265,0.000000,0.271360,-0.000000,16.491554,-15.426903,-42.356101
2659.390000,10.490000,0.075212,-0.438751,10.530718,0.000000,0.328215,-0.000000,16.618873,-15.426903,-42.306308
2659.400000,10.500000,0.031688,-0.451252,10.645701,0.000000,0.380791,0.000000,16.769235,-15.426903,-42.246934
2659.410000,10.510000,-0.017200,-0.462280,10.749655,0.000000,0.428403,-0.000000,16.940586,-15.426903,-42.178516
2659.420000,10.520000,-0.070911,-0.471802,10.841164,0.000000,0.470430,0.000000,17.130591,-15.426903,-42.101705
2659.430000,10.530000,-0.128765,-0.479784,10.918975,0.000000,0.506324,-0.000000,17.336672,-15.426903,-42.017264
2659.440000,10.540000,-0.189951,-0.486201,10.982022,0.000000,0.535617,0.000000,17.556049,-15.426903,-41.926076
2659.450000,10.550000,-0.253546,-0.491032,11.029441,0.000000,0.557928,0.000000,17.785774,-15.426903,-41.829139
2659.460000,10.560000,-0.318537,-0.494262,11.060585,0.000000,0.572966,-0.000000,18.022783,-15.426903,-41.727568
2659.470000,10.570000,-0.383841,-0.495879,11.075037,0.000000,0.580534,-0.000000,18.263932,-15.426903,-41.622584
2659.480000,10.580000,-0.448339,-0.495879,11.072614,0.000000,0.580534,0.000000,18.506045,-15.426903,-41.515503
2659.490000,10.590000,-0.510901,-0.494262,11.053370,0.000000,0.572966,0.000000,18.745959,-15.426903,-41.407725
2659.500000,10.600000,-0.570418,-0.491032,11.017598,0.000000,0.557928,-0.000000,18.980562,-15.426903,-41.300714
2659.510000,10.610000,-0.625830,-0.486201,10.965820,0.000000,0.535617,-0.000000,19.206835,-15.426903,-41.195972
2659.520000,10.620000,-0.676155,-0.479784,10.898780,0.000000,0.506324,0.000000,19.421894,-15.426903,-41.095021
2659.530000,10.630000,-0.720510,-0.471802,10.817427,0.000000,0.470430,-0.000000,19.623015,-15.426903,-40.999365
2659.540000,10.640000,-0.758137,-0.462280,10.722901,0.000000,0.428403,0.000000,19.807676,-15.426903,-40.910471
2659.550000,10.650000,-0.788415,-0.451252,10.616514,0.000000,0.380791,-0.000000,19.973577,-15.426903,-40.829731
2659.560000,10.660000,-0.810870,-0.438751,10.499723,0.000000,0.328215,0.000000,20.118666,-15.426903,-40.758434
2659.570000,10.670000,-0.825186,-0.424819,10.374111,0.000000,0.271360,0.000000,20.241163,-15.426903,-40.697739
2659.580000,10.680000,-0.831198,-0.409501,10.241364,0.000000,0.210967,-0.000000,20.339573,-15.426903,-40.648646
2659.590000,10.690000,-0.828893,-0.392848,10.103240,0.000000,0.147824,-0.000000,20.412701,-15.426903,-40.611973
2659.600000,10.700000,-0.818399,-0.374913,9.961552,0.000000,0.082754,-0.000000,20.459661,-15.426903,-40.588335
2659.610000,10.710000,-0.799969,-0.355756,9.818138,0.000000,0.016605,0.000000,20.479889,-15.426903,-40.578133
2659.620000,10.720000,-0.773970,-0.335438,9.674841,0.000000,-0.049761,0.000000,20.473139,-15.426903,-40.581538
2659.630000,10.730000,-0.740856,-0.314026,9.533485,0.000000,-0.115477,-0.000000,20.439495,-15.426903,-40.598494
2659.640000,10.740000,-0.701155,-0.291589,9.395856,0.000000,-0.179689,-0.000000,20.379360,-15.426903,-40.628714
2659.650000,10.750000,-0.655448,-0.268202,9.263679,0.000000,-0.241557,0.000000,20.293461,-15.426903,-40.671687
2659.660000,10.760000,-0.604345,-0.243940,9.138600,0.000000,-0.300277,-0.000000,20.182839,-15.426903,-40.726695
2659.670000,10.770000,-0.548471,-0.218882,9.022168,0.000000,-0.355082,-0.000000,20.048841,-15.426903,-40.792826
2659.680000,10.780000,-0.488449,-0.193110,8.915821,0.000000,-0.405258,0.000000,19.893106,-15.426903,-40.868998
2659.690000,10.790000,-0.424889,-0.166708,8.820866,0.000000,-0.450150,0.000000,19.717553,-15.426903,-40.953984
2659.700000,10.800000,-0.358377,-0.139762,8.738466,0.000000,-0.489175,0.000000,19.524359,-15.426903,-41.046438
2659.710000,10.810000,-0.289469,-0.112361,8.669631,0.000000,-0.521822,-0.000000,19.315941,-15.426903,-41.144928
2659.720000,10.820000,-0.218691,-0.084593,8.615201,0.000000,-0.547666,0.000000,19.094924,-15.426903,-41.247964
2659.730000,10.830000,-0.146542,-0.056549,8.575841,0.000000,-0.566371,0.000000,18.864115,-15.426903,-41.354030
2659.740000,10.840000,-0.073494,-0.028321,8.552032,0.000000,-0.577692,-0.000000,18.626473,-15.426903,-41.461611
2659.750000,10.850000,0.000000,0.000000,8.544063,0.000000,-0.581482,0.000000,18.385067,-15.426903,-41.569219
2659.760000,10.860000,0.073494,0.028321,8.552032,0.000000,-0.577692,0.000000,18.143038,-15.426903,-41.675422
2659.770000,10.870000,0.146542,0.056549,8.575841,0.000000,-0.566371,-0.000000,17.903564,-15.426903,-41.778859
2659.780000,10.880000,0.218691,0.084593,8.615201,0.000000,-0.547666,-0.000000,17.669807,-15.426903,-41.878259
2659.790000,10.890000,0.289469,0.112361,8.669631,0.000000,-0.521822,0.000000,17.444879,-15.426903,-41.972454
2659.800000,10.900000,0.358377,0.139762,8.738466,0.000000,-0.489175,-0.000000,17.231791,-15.426903,-42.060386
2659.810000,10.910000,0.424889,0.166708,8.820866,0.000000,-0.450150,0.000000,17.033412,-15.426903,-42.141115
2659.820000,10.920000,0.488449,0.193110,8.915821,0.000000,-0.405258,0.000000,16.852427,-15.426903,-42.213817
2659.830000,10.930000,0.548471,0.218882,9.022168,0.000000,-0.355082,0.000000,16.691295,-15.426903,-42.277788
2659.840000,10.940000,0.604345,0.243940,9.138600,0.000000,-0.300277,0.000000,16.552216,-15.426903,-42.332432
2659.850000,10.950000,0.655448,0.268202,9.263679,0.000000,-0.241557,-0.000000,16.437094,-15.426903,-42.377265
2659.860000,10.960000,0.701155,0.291589,9.395856,0.000000,-0.179689,0.000000,16.347510,-15.426903,-42.411904
2659.870000,10.970000,0.740856,0.314026,9.533485,0.000000,-0.115477,0.000000,16.284694,-15.426903,-42.436063
